:Time=1.667935422117E9;RotationMatrix=[0.14967805, -0.5668317, -0.81012243, 0.9173291, 0.3853337, -0.100127205, 0.36892274, -0.72816217, 0.57764715]
:Time=1.667935454298E9;RotationMatrix=[0.34128022, 0.58340824, -0.7369957, -0.9395376, 0.23527405, -0.24882747, 0.028228074, 0.7773551, 0.6284284]
execStepTime;accCounter;accTime;accX;accY;accZ;gyrCounter;gyrTime;gyrX;gyrY;gyrZ;speed;cadence;assistMode;accDuX;accDuZ;pressure;smartphoneAtmPressure;hubConnection;mountingAngle;manualCrashFire;crashFire;crashClass;rollDeg;pitchDeg;tipOverFeature;groundHitFeature;collisionFeature;rideFeature;standFeature;riderlessRollOverFeature;smartphoneDropOutFeature;userCrashFeedBack;gpsLat;gpsLong;gpsAccuracy;gpsTimeStamp;inVehicle;onBicycle;onFoot;still;unknown;tilting;walking;running
1.667935422117E9;15712;667935.520453866;-754;-17;303;15715;667935.517953866;-12363;-3937;8907;0.0;0;0;0;0;98247;98247;0;0;0;0;0;14.254467;1.1286994;0.0;0;0;0;1;0;0.0;-1;0.0;0.0;0.0;0.0;10;10;10;10;41;0;10;10
1.667935422129E9;15713;667935.5299836571;-736;20;402;15716;667935.527483657;-17333;-2003;6746;0.0;0;0;0;0;98247;98247;0;0;0;0;0;13.755995;0.6540214;0.0;0;0;0;1;0;0.0;-1;0.0;0.0;0.0;0.0;10;10;10;10;41;0;10;10
1.667935422134E9;15714;667935.5395134491;-819;24;533;15717;667935.537013449;-15994;-673;4934;0.0;0;0;0;0;98247;98247;0;0;0;0;0;13.136659;0.13240838;0.0;0;0;0;1;0;0.0;-1;0.0;0.0;0.0;0.0;10;10;10;10;41;0;10;10
1.667935422144E9;15715;667935.549043189;-916;-3;595;15718;667935.5465431891;-10595;-2467;5827;0.0;0;0;0;0;98247;98247;0;0;0;0;0;12.476182;-0.37931398;0.0;0;0;0;1;0;0.0;-1;0.0;0.0;0.0;0.0;10;10;10;10;41;0;10;10
1.667935422153E9;15716;667935.55857298;-944;-60;553;15719;667935.55607298;-5188;-5363;7918;0.0;0;0;0;0;98251;98251;0;0;0;0;0;11.851718;-0.82340837;0.0;0;0;0;1;0;0.0;-1;0.0;0.0;0.0;0.0;10;10;10;10;41;0;10;10
1.667935422198E9;15717;667935.568102772;-946;-65;490;15720;667935.565602772;-2992;-5704;8714;0.0;0;0;0;0;98251;98251;0;0;0;0;0;11.317906;-1.1564435;0.0;0;0;0;1;0;0.0;-1;0.0;0.0;0.0;0.0;10;10;10;10;41;0;10;10
1.667935422198E9;15718;667935.577632511;-1005;-23;456;15721;667935.5751325111;-4409;-4392;7008;0.0;0;0;0;0;98251;98251;0;0;0;0;0;10.890215;-1.3418822;0.0;0;0;0;1;0;0.0;-1;0.0;0.0;0.0;0.0;10;10;10;10;41;0;10;10
1.667935422198E9;15719;667935.587162303;-1008;-18;427;15722;667935.5846623031;-8670;-4199;6483;0.0;0;0;0;0;98251;98251;0;0;0;0;0;10.574527;-1.4236168;0.0;0;0;0;1;0;0.0;-1;0.0;0.0;0.0;0.0;10;10;10;10;41;0;10;10
1.667935422198E9;15720;667935.596692043;-904;-31;392;15723;667935.5941920431;-14472;-6308;7218;0.0;0;0;0;0;98251;98251;0;0;0;0;0;10.339808;-1.4461942;0.0;0;0;0;1;0;0.0;-1;0.0;0.0;0.0;0.0;10;10;10;10;41;0;10;10
1.667935422201E9;15721;667935.6062218341;-835;-43;424;15724;667935.603721834;-18514;-6457;6343;0.0;0;0;0;0;98243;98243;0;0;0;0;0;10.169319;-1.4171335;0.0;0;0;0;1;0;0.0;-1;0.0;0.0;0.0;0.0;10;10;10;10;41;0;10;10
1.667935422211E9;15722;667935.6157516261;-817;-61;511;15725;667935.613251626;-16475;-2624;5923;0.0;0;0;0;0;98243;98243;0;0;0;0;0;10.072226;-1.3639021;0.0;0;0;0;1;0;0.0;-1;0.0;0.0;0.0;0.0;78;0;2;0;0;0;2;0
1.667935422221E9;15723;667935.625281366;-833;-58;547;15726;667935.622781366;-10464;-96;6798;0.0;0;0;0;0;98243;98243;0;0;0;0;0;10.017493;-1.3269634;0.0;0;0;0;1;0;0.0;-1;0.0;0.0;0.0;0.0;78;0;2;0;0;0;2;0
1.66793542223E9;15724;667935.634811157;-880;-36;529;15727;667935.6323111571;-6142;332;6754;0.0;0;0;0;0;98243;98243;0;0;0;0;0;9.966322;-1.3056306;0.0;0;0;0;1;0;0.0;-1;0.0;0.0;0.0;0.0;78;0;2;0;0;0;2;0
1.667935422239E9;15725;667935.644340949;-945;-23;467;15728;667935.6418409491;-6632;-87;6264;0.0;0;0;0;0;98242;98242;0;0;0;0;0;9.902523;-1.2829711;0.0;0;0;0;1;0;0.0;-1;0.0;0.0;0.0;0.0;78;0;2;0;0;0;2;0
1.667935422249E9;15726;667935.653870689;-953;-26;408;15729;667935.651370689;-11374;-2957;6877;0.0;0;0;0;0;98242;98242;0;0;0;0;0;9.809854;-1.2598453;0.0;0;0;0;1;0;0.0;-1;0.0;0.0;0.0;0.0;78;0;2;0;0;0;2;0
1.66793542226E9;15727;667935.66340048;-928;-58;424;15730;667935.66090048;-15469;-5547;7279;0.0;0;0;0;0;98242;98242;0;0;0;0;0;9.698802;-1.2342534;0.0;0;0;0;1;0;0.0;-1;0.0;0.0;0.0;0.0;78;0;2;0;0;0;2;0
1.667935422267E9;15728;667935.67293022;-884;-71;499;15731;667935.6704302201;-14550;-5538;9038;0.0;0;0;0;0;98242;98242;0;0;0;0;0;9.606214;-1.2253153;0.0;0;0;0;1;0;0.0;-1;0.0;0.0;0.0;0.0;78;0;2;0;0;0;2;0
1.667935422277E9;15729;667935.6824600111;-831;-73;553;15732;667935.679960011;-10368;-5109;10543;0.0;0;0;0;0;98239;98239;0;0;0;0;0;9.535441;-1.2418414;0.0;0;0;0;1;0;0.0;-1;0.0;0.0;0.0;0.0;78;0;2;0;0;0;2;0
1.667935422287E9;15730;667935.691989803;-866;-29;552;15733;667935.689489803;-7104;-4751;8600;0.0;0;0;0;0;98239;98239;0;0;0;0;0;9.467441;-1.2541803;0.0;0;0;0;1;0;0.0;-1;0.0;0.0;0.0;0.0;78;0;2;0;0;0;2;0
1.667935422297E9;15731;667935.7015195431;-883;-16;483;15734;667935.699019543;-8592;-4821;6912;0.0;0;0;0;0;98239;98239;0;0;0;0;0;9.390112;-1.2486585;0.0;0;0;0;1;0;0.0;-1;0.0;0.0;0.0;0.0;78;0;2;0;0;0;2;0
1.667935422306E9;15732;667935.711049334;-884;-25;422;15735;667935.7085493341;-13842;-4768;5459;0.0;0;0;0;0;98239;98239;0;0;0;0;0;9.300803;-1.2127857;0.0;0;0;0;1;0;0.0;-1;0.0;0.0;0.0;0.0;78;0;2;0;0;0;2;0
1.6679354223140001E9;15733;667935.720579074;-890;-41;441;15736;667935.718079074;-16125;-1723;4654;0.0;0;0;0;0;98236;98236;0;0;0;0;0;9.23501;-1.1531476;0.0;0;0;0;1;0;0.0;-1;0.0;0.0;0.0;0.0;78;0;2;0;0;0;2;0
1.6679354223270001E9;15734;667935.730108866;-871;-56;488;15737;667935.7276088661;-12748;2047;5923;0.0;0;0;0;0;98236;98236;0;0;0;0;0;9.215143;-1.1066715;0.0;0;0;0;1;0;0.0;-1;0.0;0.0;0.0;0.0;78;0;2;0;0;0;2;0
1.667935422335E9;15735;667935.7396386571;-871;-47;512;15738;667935.737138657;-7288;2064;7297;0.0;0;0;0;0;98236;98236;0;0;0;0;0;9.209726;-1.0962139;0.0;0;0;0;1;0;0.0;-1;0.0;0.0;0.0;0.0;78;0;2;0;0;0;2;0
1.667935422345E9;15736;667935.749168397;-884;-16;502;15739;667935.7466683971;-4287;-1399;8259;0.0;0;0;0;0;98236;98236;0;0;0;0;0;9.181717;-1.1203868;0.0;0;0;0;1;0;0.0;-1;0.0;0.0;0.0;0.0;78;0;2;0;0;0;2;0
1.667935422354E9;15737;667935.758698189;-862;-4;455;15740;667935.756198189;-6536;-6273;9178;0.0;0;0;0;0;98236;98236;0;0;0;0;0;9.110986;-1.1615989;0.0;0;0;0;1;0;0.0;-1;0.0;0.0;0.0;0.0;78;0;2;0;0;0;2;0
1.667935422364E9;15738;667935.76822798;-860;-5;457;15741;667935.7657279801;-12118;-8312;8583;0.0;0;0;0;0;98237;98237;0;0;0;0;0;9.013744;-1.1829945;0.0;0;0;0;1;0;0.0;-1;0.0;0.0;0.0;0.0;78;0;2;0;0;0;2;0
1.6679354223730001E9;15739;667935.7777577201;-876;-29;530;15742;667935.77525772;-14690;-4987;7769;0.0;0;0;0;0;98237;98237;0;0;0;0;0;8.942493;-1.1756293;0.0;0;0;0;1;0;0.0;-1;0.0;0.0;0.0;0.0;78;0;2;0;0;0;2;0
1.667935422381E9;15740;667935.787287511;-886;-44;561;15743;667935.784787511;-12730;-734;7831;0.0;0;0;0;0;98237;98237;0;0;0;0;0;8.914502;-1.1628118;0.0;0;0;0;1;0;0.0;-1;0.0;0.0;0.0;0.0;78;0;2;0;0;0;2;0
1.667935422391E9;15741;667935.796817251;-910;-41;523;15744;667935.7943172511;-9904;1434;7209;0.0;0;0;0;0;98237;98237;0;0;0;0;0;8.908386;-1.151008;0.0;0;0;0;1;0;0.0;-1;0.0;0.0;0.0;0.0;78;0;2;0;0;0;2;0
1.667935422401E9;15742;667935.806347043;-897;-36;462;15745;667935.8038470431;-9904;1574;7139;0.0;0;0;0;0;98237;98237;0;0;0;0;0;8.902772;-1.140201;0.0;0;0;0;1;0;0.0;-1;0.0;0.0;0.0;0.0;78;0;2;0;0;0;2;0
1.667935422411E9;15743;667935.8158768341;-887;-37;444;15746;667935.813376834;-12450;174;6781;0.0;0;0;0;0;98237;98237;0;0;0;0;0;8.879199;-1.1229552;0.0;0;0;0;1;0;0.0;-1;0.0;0.0;0.0;0.0;78;0;2;0;0;0;2;0
1.667935422422E9;15744;667935.8254065741;-913;-34;490;15747;667935.822906574;-13229;-524;6002;0.0;0;0;0;0;98237;98237;0;0;0;0;0;8.846242;-1.1005481;0.0;0;0;0;1;0;0.0;-1;0.0;0.0;0.0;0.0;78;0;2;0;0;0;2;0
1.6679354224290001E9;15745;667935.8349363661;-894;-36;513;15748;667935.832436366;-10884;-1566;6938;0.0;0;0;0;0;98237;98237;0;0;0;0;0;8.812247;-1.1008998;0.0;0;0;0;1;0;0.0;-1;0.0;0.0;0.0;0.0;78;0;2;0;0;0;2;0
1.66793542244E9;15746;667935.844466105;-868;-43;484;15749;667935.841966105;-8880;-3989;7883;0.0;0;0;0;0;98232;98232;0;0;0;0;0;8.76428;-1.1272074;0.0;0;0;0;1;0;0.0;-1;0.0;0.0;0.0;0.0;78;0;2;0;0;0;2;0
1.66793542245E9;15747;667935.853995897;-850;-33;463;15750;667935.851495897;-8600;-4401;7953;0.0;0;0;0;0;98232;98232;0;0;0;0;0;8.7146635;-1.1567761;0.0;0;0;0;1;0;0.0;-1;0.0;0.0;0.0;0.0;78;0;2;0;0;0;2;0
1.66793542246E9;15748;667935.863525689;-812;-28;433;15751;667935.861025689;-9738;-3368;8434;0.0;0;0;0;0;98232;98232;0;0;0;0;0;8.6754675;-1.1810913;0.0;0;0;0;1;0;0.0;-1;0.0;0.0;0.0;0.0;78;0;2;0;0;0;2;0
1.667935422468E9;15749;667935.873055428;-818;-9;422;15752;667935.8705554281;-12153;-2397;7428;0.0;0;0;0;0;98232;98232;0;0;0;0;0;8.6387005;-1.1834097;0.0;0;0;0;1;0;0.0;-1;0.0;0.0;0.0;0.0;78;0;2;0;0;0;2;0
1.667935422477E9;15750;667935.88258522;-844;-13;431;15753;667935.8800852201;-13938;-1084;6352;0.0;0;0;0;0;98237;98237;0;0;0;0;0;8.60843;-1.165124;0.0;0;0;0;1;0;0.0;-1;0.0;0.0;0.0;0.0;78;0;2;0;0;0;2;0
1.66793542249E9;15751;667935.8921149591;-840;-21;455;15754;667935.889614959;-14227;306;6833;0.0;0;0;0;0;98237;98237;0;0;0;0;0;8.593345;-1.1451097;0.0;0;0;0;1;0;0.0;-1;0.0;0.0;0.0;0.0;78;0;2;0;0;0;2;0
1.667935422497E9;15752;667935.9016447511;-899;-22;519;15755;667935.899144751;-12389;1006;6702;0.0;0;0;0;0;98237;98237;0;0;0;0;0;8.588188;-1.1304463;0.0;0;0;0;1;0;0.0;-1;0.0;0.0;0.0;0.0;78;0;2;0;0;0;2;0
1.667935422506E9;15753;667935.9111745431;-953;-21;587;15756;667935.908674543;-7428;1653;7227;0.0;0;0;0;0;98237;98237;0;0;0;0;0;8.599321;-1.1399227;0.0;0;0;0;1;0;0.0;-1;0.0;0.0;0.0;0.0;78;0;2;0;0;0;2;0
1.667935422515E9;15754;667935.920704282;-913;-19;553;15757;667935.9182042821;-3517;-769;8959;0.0;0;0;0;0;98240;98240;0;0;0;0;0;8.60096;-1.1900556;0.0;0;0;0;1;0;0.0;-1;0.0;0.0;0.0;0.0;78;0;2;0;0;0;2;0
1.667935422527E9;15755;667935.930234074;-889;6;462;15758;667935.9277340741;-5328;-5153;7918;0.0;0;0;0;0;98240;98240;0;0;0;0;0;8.556404;-1.2412764;0.0;0;0;0;1;0;0.0;-1;0.0;0.0;0.0;0.0;78;0;2;0;0;0;2;0
1.667935422535E9;15756;667935.9397638141;-852;21;412;15759;667935.937263814;-10648;-5801;7034;0.0;0;0;0;0;98240;98240;0;0;0;0;0;8.495194;-1.2652572;0.0;0;0;0;1;0;0.0;-1;0.0;0.0;0.0;0.0;78;0;2;0;0;0;2;0
1.667935422543E9;15757;667935.949293605;-786;5;398;15760;667935.946793605;-15198;-3946;7271;0.0;0;0;0;0;98240;98240;0;0;0;0;0;8.445627;-1.2649071;0.0;0;0;0;1;0;0.0;-1;0.0;0.0;0.0;0.0;78;0;2;0;0;0;2;0
1.6679354225540001E9;15758;667935.958823397;-780;-18;440;15761;667935.956323397;-16633;-1023;5486;0.0;0;0;0;0;98241;98241;0;0;0;0;0;8.415197;-1.2339566;0.0;0;0;0;1;0;0.0;-1;0.0;0.0;0.0;0.0;78;0;2;0;0;0;2;0
1.6679354225640001E9;15759;667935.9683531361;-796;-42;494;15762;667935.965853136;-13737;1697;5214;0.0;0;0;0;0;98241;98241;0;0;0;0;0;8.414148;-1.2044106;0.0;0;0;0;1;0;0.0;-1;0.0;0.0;0.0;0.0;78;0;2;0;0;0;2;0
1.667935422575E9;15760;667935.9778829281;-834;-45;525;15763;667935.975382928;-8495;3456;5739;0.0;0;0;0;0;98241;98241;0;0;0;0;0;8.439573;-1.1963552;0.0;0;0;0;1;0;0.0;-1;0.0;0.0;0.0;0.0;78;0;2;0;0;0;2;0
1.667935422582E9;15761;667935.98741272;-938;-17;551;15764;667935.98491272;-4532;3683;5214;0.0;0;0;0;0;98241;98241;0;0;0;0;0;8.471035;-1.2014428;0.0;0;0;0;1;0;0.0;-1;0.0;0.0;0.0;0.0;78;0;2;0;0;0;2;0
1.667935422592E9;15762;667935.996942459;-996;-9;548;15765;667935.9944424591;-3736;1181;6632;0.0;0;0;0;0;98241;98241;0;0;0;0;0;8.485483;-1.231538;0.0;0;0;0;1;0;0.0;-1;0.0;0.0;0.0;0.0;78;0;2;0;0;0;2;0
1.667935422602E9;15763;667936.006472251;-1002;-26;524;15766;667936.0039722511;-6833;-3009;7332;0.0;0;0;0;0;98238;98238;0;0;0;0;0;8.459142;-1.2701459;0.0;0;0;0;0;0;0.0;-1;0.0;0.0;0.0;0.0;78;0;2;0;0;0;2;0
1.667935422611E9;15764;667936.016001991;-1019;-33;521;15767;667936.013501991;-10298;-5109;6824;0.0;0;0;0;0;98238;98238;0;0;0;0;0;8.40676;-1.2977084;0.0;0;0;0;0;0;0.0;-1;0.0;0.0;0.0;0.0;78;0;2;0;0;0;2;0
1.667935422622E9;15765;667936.0255317821;-975;-43;535;15768;667936.023031782;-10937;-3858;7446;0.0;0;0;0;0;98238;98238;0;0;0;0;0;8.367741;-1.3224083;0.0;0;0;0;0;0;0.0;-1;0.0;0.0;0.0;0.0;78;0;2;0;0;0;2;0
1.66793542263E9;15766;667936.0350615741;-985;-43;554;15769;667936.032561574;-8977;-507;5897;0.0;0;0;0;0;98238;98238;0;0;0;0;0;8.357465;-1.3302166;0.0;0;0;0;0;0;0.0;-1;0.0;0.0;0.0;0.0;78;0;2;0;0;0;2;0
1.66793542264E9;15767;667936.044591314;-966;-58;517;15770;667936.0420913141;-6571;1793;4576;0.0;0;0;0;0;98242;98242;0;0;0;0;0;8.367521;-1.3292345;0.0;0;0;0;0;0;0.0;-1;0.0;0.0;0.0;0.0;78;0;2;0;0;0;2;0
1.667935422652E9;15768;667936.054121105;-907;-57;414;15771;667936.051621105;-6711;1723;4016;0.0;0;0;0;0;98242;98242;0;0;0;0;0;8.374674;-1.3236276;0.0;0;0;0;0;0;0.0;-1;0.0;0.0;0.0;0.0;78;0;2;0;0;0;2;0
1.667935422696E9;15769;667936.0636508451;-865;-41;354;15772;667936.061150845;-9685;673;3359;0.0;0;0;0;0;98242;98242;0;0;0;0;0;8.365207;-1.3040313;0.0;0;0;0;0;0;0.0;-1;0.0;0.0;0.0;0.0;78;0;2;0;0;0;2;0
1.667935422696E9;15770;667936.073180636;-827;-33;386;15773;667936.0706806361;-11322;1566;4672;0.0;0;0;0;0;98242;98242;0;0;0;0;0;8.366239;-1.2844188;0.0;0;0;0;0;0;0.0;-1;0.0;0.0;0.0;0.0;78;0;2;0;0;0;2;0
1.667935422696E9;15771;667936.082710428;-797;-25;470;15774;667936.080210428;-9773;2826;6501;0.0;0;0;0;0;98240;98240;0;0;0;0;0;8.388074;-1.2813084;0.0;0;0;0;0;0;0.0;-1;0.0;0.0;0.0;0.0;78;0;2;0;0;0;2;0
1.667935422696E9;15772;667936.092240168;-858;-30;538;15775;667936.0897401681;-6439;3114;7087;0.0;0;0;0;0;98240;98240;0;0;0;0;0;8.42012;-1.2961841;0.0;0;0;0;0;0;0.0;-1;0.0;0.0;0.0;0.0;78;0;2;0;0;0;2;0
1.667935422698E9;15773;667936.1017699591;-871;-35;539;15776;667936.099269959;-4593;1242;9082;0.0;0;0;0;0;98240;98240;0;0;0;0;0;8.445053;-1.341919;0.0;0;0;0;0;0;0.0;-1;0.0;0.0;0.0;0.0;78;0;2;0;0;0;2;0
1.667935422706E9;15774;667936.1112997511;-881;-23;501;15777;667936.108799751;-6842;-1828;8942;0.0;0;0;0;0;98240;98240;0;0;0;0;0;8.437637;-1.3880202;0.0;0;0;0;0;0;0.0;-1;0.0;0.0;0.0;0.0;78;0;2;0;0;0;2;0
1.6679354227150002E9;15775;667936.1208294911;-950;-13;513;15778;667936.118329491;-10604;-866;6798;0.0;0;0;0;0;98241;98241;0;0;0;0;0;8.425158;-1.3963332;0.0;0;0;0;0;0;0.0;-1;0.0;0.0;0.0;0.0;78;0;2;0;0;0;2;0
1.667935422726E9;15776;667936.130359282;-933;-39;524;15779;667936.1278592821;-12459;1767;6842;0.0;0;0;0;0;98241;98241;0;0;0;0;0;8.433766;-1.386559;0.0;0;0;0;0;0;0.0;-1;0.0;0.0;0.0;0.0;78;0;2;0;0;0;2;0
1.667935422736E9;15777;667936.139889022;-912;-36;494;15780;667936.137389022;-12958;2607;5354;0.0;0;0;0;0;98241;98241;0;0;0;0;0;8.443869;-1.3597591;0.0;0;0;0;0;0;0.0;-1;0.0;0.0;0.0;0.0;78;0;2;0;0;0;2;0
1.667935422744E9;15778;667936.149418814;-912;-36;478;15781;667936.146918814;-12538;2677;4033;0.0;0;0;0;0;98241;98241;0;0;0;0;0;8.45066;-1.3244716;0.0;0;0;0;0;0;0.0;-1;0.0;0.0;0.0;0.0;78;0;2;0;0;0;2;0
1.667935422754E9;15779;667936.1589486051;-923;-28;494;15782;667936.156448605;-10902;2406;4532;0.0;0;0;0;0;98241;98241;0;0;0;0;0;8.459626;-1.3018227;0.0;0;0;0;0;0;0.0;-1;0.0;0.0;0.0;0.0;78;0;2;0;0;0;2;0
1.667935422763E9;15780;667936.168478345;-970;-38;545;15783;667936.1659783451;-8137;1513;5267;0.0;0;0;0;0;98241;98241;0;0;0;0;0;8.467811;-1.30081;0.0;0;0;0;0;0;0.0;-1;0.0;0.0;0.0;0.0;78;0;2;0;0;0;2;0
1.667935422773E9;15781;667936.178008136;-984;-49;558;15784;667936.175508136;-4716;-428;6632;0.0;0;0;0;0;98241;98241;0;0;0;0;0;8.468987;-1.3330446;0.0;0;0;0;0;0;0.0;-1;0.0;0.0;0.0;0.0;78;0;2;0;0;0;2;0
1.667935422782E9;15782;667936.1875378761;-976;-27;501;15785;667936.185037876;-3919;-3342;7498;0.0;0;0;0;0;98241;98241;0;0;0;0;0;8.448241;-1.3864707;0.0;0;0;0;0;0;0.0;-1;0.0;0.0;0.0;0.0;78;0;2;0;0;0;2;0
1.6679354227910001E9;15783;667936.1970676681;-938;-21;434;15786;667936.194567668;-6894;-5092;7131;0.0;0;0;0;0;98241;98241;0;0;0;0;0;8.405773;-1.4299829;0.0;0;0;0;0;0;0.0;-1;0.0;0.0;0.0;0.0;78;0;2;0;0;0;2;0
1.667935422802E9;15784;667936.206597459;-876;-14;408;15787;667936.2040974591;-10867;-4409;6536;0.0;0;0;0;0;98236;98236;0;0;0;0;0;8.361574;-1.4479831;0.0;0;0;0;0;0;0.0;-1;0.0;0.0;0.0;0.0;78;0;2;0;0;0;2;0
1.667935422811E9;15785;667936.216127199;-838;-13;424;15788;667936.2136271991;-13500;-2406;5591;0.0;0;0;0;0;98236;98236;0;0;0;0;0;8.328762;-1.4387021;0.0;0;0;0;0;0;0.0;-1;0.0;0.0;0.0;0.0;78;0;2;0;0;0;2;0
1.667935422823E9;15786;667936.225656991;-833;-24;464;15789;667936.2231569911;-12940;-314;5022;0.0;0;0;0;0;98236;98236;0;0;0;0;0;8.3147955;-1.4191167;0.0;0;0;0;0;0;0.0;-1;0.0;0.0;0.0;0.0;78;0;2;0;0;0;2;0
1.66793542283E9;15787;667936.23518673;-820;-43;485;15790;667936.23268673;-10473;1154;5949;0.0;0;0;0;0;98236;98236;0;0;0;0;0;8.322227;-1.4120768;0.0;0;0;0;0;0;0.0;-1;0.0;0.0;0.0;0.0;78;0;2;0;0;0;2;0
1.6679354228400002E9;15788;667936.244716522;-892;-39;520;15791;667936.242216522;-7927;2764;6098;0.0;0;0;0;0;98236;98236;0;0;0;0;0;8.349304;-1.4111009;0.0;0;0;0;0;0;0.0;-1;0.0;0.0;0.0;0.0;78;0;2;0;0;0;2;0
1.667935422851E9;15789;667936.254246314;-963;-63;510;15792;667936.251746314;-6658;3184;6737;0.0;0;0;0;0;98236;98236;0;0;0;0;0;8.384455;-1.419079;0.0;0;0;0;0;0;0.0;-1;0.0;0.0;0.0;0.0;78;0;2;0;0;0;2;0
1.667935422861E9;15790;667936.2637760531;-974;-59;401;15793;667936.261276053;-10280;4278;7402;0.0;0;0;0;0;98236;98236;0;0;0;0;0;8.425513;-1.4120437;0.0;0;0;0;0;0;0.0;-1;0.0;0.0;0.0;0.0;78;0;2;0;0;0;2;0
1.667935422869E9;15791;667936.2733058451;-968;-34;596;15794;667936.270805845;-14568;-1714;6842;0.0;0;0;0;0;98236;98236;0;0;0;0;0;8.402793;-1.4052618;0.0;0;0;0;0;0;0.0;-1;0.0;0.0;0.0;0.0;78;0;2;0;0;0;2;0
1.667935422878E9;15792;667936.282835636;-867;-63;448;15795;667936.280335636;-13387;-9502;6754;0.0;0;0;0;0;98240;98240;0;0;0;0;0;8.311695;-1.4332232;0.0;0;0;0;0;0;0.0;-1;0.0;0.0;0.0;0.0;78;0;2;0;0;0;2;0
1.667935422889E9;15793;667936.292365376;-878;-38;431;15796;667936.2898653761;-13649;-1854;6151;0.0;0;0;0;0;98240;98240;0;0;0;0;0;8.2886305;-1.4245963;0.0;0;0;0;0;0;0.0;-1;0.0;0.0;0.0;0.0;78;0;2;0;0;0;2;0
1.667935422897E9;15794;667936.301895168;-944;-49;488;15797;667936.2993951681;-11269;4068;5713;0.0;0;0;0;0;98240;98240;0;0;0;0;0;8.32228;-1.3996136;0.0;0;0;0;0;0;0.0;-1;0.0;0.0;0.0;0.0;78;0;2;0;0;0;2;0
1.667935422907E9;15795;667936.3114249071;-957;-59;504;15798;667936.308924907;-8434;4777;6781;0.0;0;0;0;0;98240;98240;0;0;0;0;0;8.370817;-1.3929031;0.0;0;0;0;0;0;0.0;-1;0.0;0.0;0.0;0.0;78;0;2;0;0;0;2;0
1.667935422915E9;15796;667936.3209546991;-1001;-38;546;15799;667936.318454699;-7656;4226;6938;0.0;0;0;0;0;98237;98237;0;0;0;0;0;8.415893;-1.392909;0.0;0;0;0;0;0;0.0;-1;0.0;0.0;0.0;0.0;78;0;2;0;0;0;2;0
1.667935422927E9;15797;667936.330471209;-1079;-18;580;15800;667936.3279712091;-7218;3044;6317;0.0;0;0;0;0;98237;98237;0;0;0;0;0;8.448482;-1.3943642;0.0;0;0;0;0;0;0.0;-1;0.0;0.0;0.0;0.0;78;0;2;0;0;0;2;0
1.667935422936E9;15798;667936.34001423;-1006;-31;538;15801;667936.33751423;-7839;-437;8154;0.0;0;0;0;0;98237;98237;0;0;0;0;0;8.454757;-1.4211725;0.0;0;0;0;0;0;0.0;-1;0.0;0.0;0.0;0.0;78;0;2;0;0;0;2;0
1.667935422946E9;15799;667936.349544022;-935;-15;458;15802;667936.347044022;-10928;-6011;8224;0.0;0;0;0;0;98237;98237;0;0;0;0;0;8.405588;-1.4564067;0.0;0;0;0;0;0;0.0;-1;0.0;0.0;0.0;0.0;78;0;2;0;0;0;2;0
1.667935422955E9;15800;667936.359073761;-846;-34;407;15803;667936.3565737611;-14463;-7489;8067;0.0;0;0;0;0;98236;98236;0;0;0;0;0;8.337159;-1.4800496;0.0;0;0;0;0;0;0.0;-1;0.0;0.0;0.0;0.0;78;0;2;0;0;0;2;0
1.667935422967E9;15801;667936.368603553;-767;-36;390;15804;667936.3661035531;-16047;-4086;8102;0.0;0;0;0;0;98236;98236;0;0;0;0;0;8.297985;-1.4831266;0.0;0;0;0;0;0;0.0;-1;0.0;0.0;0.0;0.0;78;0;2;0;0;0;2;0
1.667935422976E9;15802;667936.378133345;-780;-27;424;15805;667936.375633345;-15872;2108;5967;0.0;0;0;0;0;98236;98236;0;0;0;0;0;8.308463;-1.4454718;0.0;0;0;0;0;0;0.0;-1;0.0;0.0;0.0;0.0;78;0;2;0;0;0;2;0
1.667935422986E9;15803;667936.3876630841;-817;-65;471;15806;667936.385163084;-13850;8653;5529;0.0;0;0;0;0;98236;98236;0;0;0;0;0;8.38046;-1.3879268;0.0;0;0;0;0;0;0.0;-1;0.0;0.0;0.0;0.0;78;0;2;0;0;0;2;0
1.667935422994E9;15804;667936.3971928761;-859;-45;497;15807;667936.394692876;-11514;9913;6028;0.0;0;0;0;0;98234;98234;0;0;0;0;0;8.469147;-1.3403382;0.0;0;0;0;0;0;0.0;-1;0.0;0.0;0.0;0.0;78;0;2;0;0;0;2;0
1.667935423004E9;15805;667936.4067226681;-897;-34;485;15808;667936.404222668;-10499;5809;6343;0.0;0;0;0;0;98234;98234;0;0;0;0;0;8.522699;-1.3163486;0.0;0;0;0;0;0;0.0;-1;0.0;0.0;0.0;0.0;78;0;2;0;0;0;2;0
1.667935423015E9;15806;667936.416252407;-874;-12;455;15809;667936.4137524071;-10893;594;7559;0.0;0;0;0;0;98234;98234;0;0;0;0;0;8.532168;-1.3210157;0.0;0;0;0;0;0;0.0;-1;0.0;0.0;0.0;0.0;78;0;2;0;0;0;2;0
1.667935423023E9;15807;667936.425782199;-847;2;423;15810;667936.4232821991;-11934;-3858;7997;0.0;0;0;0;0;98234;98234;0;0;0;0;0;8.501058;-1.3419627;0.0;0;0;0;0;0;0.0;-1;0.0;0.0;0.0;0.0;78;0;2;0;0;0;2;0
1.667935423033E9;15808;667936.435311939;-813;-5;394;15811;667936.432811939;-12415;-5809;7656;0.0;0;0;0;0;98234;98234;0;0;0;0;0;8.450674;-1.3653743;0.0;0;0;0;0;0;0.0;-1;0.0;0.0;0.0;0.0;78;0;2;0;0;0;2;0
1.6679354230410001E9;15809;667936.4448417301;-760;-17;377;15812;667936.44234173;-12923;-3937;7848;0.0;0;0;0;0;98233;98233;0;0;0;0;0;8.417797;-1.3803688;0.0;0;0;0;0;0;0.0;-1;0.0;0.0;0.0;0.0;78;0;2;0;0;0;2;0
1.6679354230540001E9;15810;667936.45437147;-782;-14;408;15813;667936.4518714701;-12730;-104;6641;0.0;0;0;0;0;98233;98233;0;0;0;0;0;8.416321;-1.371319;0.0;0;0;0;0;0;0.0;-1;0.0;0.0;0.0;0.0;78;0;2;0;0;0;2;0
1.667935423063E9;15811;667936.463901261;-825;-33;448;15814;667936.461401261;-11339;3447;6133;0.0;0;0;0;0;98233;98233;0;0;0;0;0;8.447924;-1.3504722;0.0;0;0;0;0;0;0.0;-1;0.0;0.0;0.0;0.0;78;0;2;0;0;0;2;0
1.66793542307E9;15812;667936.473431053;-838;-38;450;15815;667936.470931053;-10342;3167;6991;0.0;0;0;0;0;98233;98233;0;0;0;0;0;8.481638;-1.3421937;0.0;0;0;0;0;0;0.0;-1;0.0;0.0;0.0;0.0;78;0;2;0;0;0;2;0
1.667935423079E9;15813;667936.4829607931;-876;-28;441;15816;667936.480460793;-10674;-166;7148;0.0;0;0;0;0;98238;98238;0;0;0;0;0;8.484935;-1.3469166;0.0;0;0;0;0;0;0.0;-1;0.0;0.0;0.0;0.0;78;0;2;0;0;0;2;0
1.6679354230900002E9;15814;667936.492490584;-878;-30;455;15817;667936.4899905841;-11584;-2747;8277;0.0;0;0;0;0;98238;98238;0;0;0;0;0;8.467401;-1.36672;0.0;0;0;0;0;0;0.0;-1;0.0;0.0;0.0;0.0;78;0;2;0;0;0;2;0
1.667935423098E9;15815;667936.502020376;-923;-2;520;15818;667936.4995203761;-11505;-4138;8845;0.0;0;0;0;0;98238;98238;0;0;0;0;0;8.439697;-1.3966082;0.0;0;0;0;0;0;0.0;-1;0.0;0.0;0.0;0.0;78;0;2;0;0;0;2;0
1.667935423109E9;15816;667936.511550116;-936;-29;546;15819;667936.5090501161;-9020;-4681;8723;0.0;0;0;0;0;98238;98238;0;0;0;0;0;8.411189;-1.4382044;0.0;0;0;0;0;0;0.0;-1;0.0;0.0;0.0;0.0;78;0;2;0;0;0;2;0
1.667935423116E9;15817;667936.5210799071;-841;-46;456;15820;667936.518579907;-7524;-6282;8679;0.0;0;0;0;0;98236;98236;0;0;0;0;0;8.37082;-1.4918902;0.0;0;0;0;0;0;0.0;-1;0.0;0.0;0.0;0.0;78;0;2;0;0;0;2;0
1.667935423127E9;15818;667936.5306096991;-799;12;364;15821;667936.528109699;-9283;-8093;6361;0.0;0;0;0;0;98236;98236;0;0;0;0;0;8.303169;-1.5259825;0.0;0;0;0;0;0;0.0;-1;0.0;0.0;0.0;0.0;78;0;2;0;0;0;2;0
1.667935423137E9;15819;667936.540139439;-784;-7;342;15822;667936.537639439;-12197;-7131;4716;0.0;0;0;0;0;98236;98236;0;0;0;0;0;8.234153;-1.5300301;0.0;0;0;0;0;0;0.0;-1;0.0;0.0;0.0;0.0;78;0;2;0;0;0;2;0
1.667935423145E9;15820;667936.54966923;-797;-16;410;15823;667936.5471692301;-12993;-3937;5678;0.0;0;0;0;0;98236;98236;0;0;0;0;0;8.196992;-1.5255868;0.0;0;0;0;0;0;0.0;-1;0.0;0.0;0.0;0.0;78;0;2;0;0;0;2;0
1.667935423155E9;15821;667936.5591989701;-851;-31;490;15824;667936.55669897;-9607;-1487;7656;0.0;0;0;0;0;98237;98237;0;0;0;0;0;8.195384;-1.5422475;0.0;0;0;0;0;0;0.0;-1;0.0;0.0;0.0;0.0;78;0;2;0;0;0;2;0
1.667935423223E9;15822;667936.568728761;-868;-45;492;15825;667936.566228761;-5284;-1539;9650;0.0;0;0;0;0;98237;98237;0;0;0;0;0;8.20785;-1.5939834;0.0;0;0;0;0;0;0.0;-1;0.0;0.0;0.0;0.0;78;0;2;0;0;0;2;0
1.667935423223E9;15823;667936.578258553;-892;-12;453;15826;667936.575758553;-4987;-3211;10009;0.0;0;0;0;0;98237;98237;0;0;0;0;0;8.206762;-1.6560766;0.0;0;0;0;0;0;0.0;-1;0.0;0.0;0.0;0.0;78;0;2;0;0;0;2;0
1.667935423223E9;15824;667936.587788293;-916;-13;429;15827;667936.5852882931;-8032;-4401;8452;0.0;0;0;0;0;98237;98237;0;0;0;0;0;8.184095;-1.6965365;0.0;0;0;0;0;0;0.0;-1;0.0;0.0;0.0;0.0;78;0;2;0;0;0;2;0
1.667935423223E9;15825;667936.5973180841;-858;-20;417;15828;667936.594818084;-11217;-4899;7726;0.0;0;0;0;0;98237;98237;0;0;0;0;0;8.149065;-1.7187921;0.0;0;0;0;0;0;0.0;-1;0.0;0.0;0.0;0.0;78;0;2;0;0;0;2;0
1.667935423223E9;15826;667936.6068478241;-832;-8;396;15829;667936.604347824;-12424;-4768;6247;0.0;0;0;0;0;98237;98237;0;0;0;0;0;8.108366;-1.7232447;0.0;0;0;0;0;0;0.0;-1;0.0;0.0;0.0;0.0;78;0;2;0;0;0;2;0
1.667935423223E9;15827;667936.6163776161;-794;-40;375;15830;667936.613877616;-12004;-2957;5888;0.0;0;0;0;0;98237;98237;0;0;0;0;0;8.084182;-1.7195442;0.0;0;0;0;0;0;0.0;-1;0.0;0.0;0.0;0.0;78;0;2;0;0;0;2;0
1.667935423223E9;15828;667936.625907407;-779;-14;413;15831;667936.6234074071;-10604;-306;6658;0.0;0;0;0;0;98237;98237;0;0;0;0;0;8.089729;-1.7178196;0.0;0;0;0;0;0;0.0;-1;0.0;0.0;0.0;0.0;78;0;2;0;0;0;2;0
1.667935423231E9;15829;667936.635437147;-872;-1;512;15832;667936.632937147;-7008;2904;6877;0.0;0;0;0;0;98237;98237;0;0;0;0;0;8.131716;-1.721293;0.0;0;0;0;0;0;0.0;-1;0.0;0.0;0.0;0.0;78;0;2;0;0;0;2;0
1.667935423239E9;15830;667936.644966939;-903;-23;546;15833;667936.642466939;-3464;3053;8382;0.0;0;0;0;0;98241;98241;0;0;0;0;0;8.186333;-1.7519797;0.0;0;0;0;0;0;0.0;-1;0.0;0.0;0.0;0.0;78;0;2;0;0;0;2;0
1.667935423251E9;15831;667936.654496678;-913;0;494;15834;667936.6519966781;-3648;-2721;8968;0.0;0;0;0;0;98241;98241;0;0;0;0;0;8.189739;-1.8091128;0.0;0;0;0;0;0;0.0;-1;0.0;0.0;0.0;0.0;78;0;2;0;0;0;2;0
1.66793542326E9;15832;667936.66402647;-890;28;428;15835;667936.6615264701;-6658;-8574;7717;0.0;0;0;0;0;98241;98241;0;0;0;0;0;8.130199;-1.8656466;0.0;0;0;0;0;0;0.0;-1;0.0;0.0;0.0;0.0;78;0;2;0;0;0;2;0
1.6679354232680001E9;15833;667936.673556261;-849;27;411;15836;667936.671056261;-10062;-9213;7271;0.0;0;0;0;0;98241;98241;0;0;0;0;0;8.057817;-1.9056941;0.0;0;0;0;0;0;0.0;-1;0.0;0.0;0.0;0.0;78;0;2;0;0;0;2;0
1.667935423278E9;15834;667936.6830860011;-804;0;424;15837;667936.680586001;-11269;-7752;7183;0.0;0;0;0;0;98244;98244;0;0;0;0;0;7.9969964;-1.9336939;0.0;0;0;0;0;0;0.0;-1;0.0;0.0;0.0;0.0;78;0;2;0;0;0;2;0
1.667935423289E9;15835;667936.6926157931;-746;-28;415;15838;667936.690115793;-9720;-5591;7323;0.0;0;0;0;0;98244;98244;0;0;0;0;0;7.9597116;-1.9611064;0.0;0;0;0;0;0;0.0;-1;0.0;0.0;0.0;0.0;78;0;2;0;0;0;2;0
1.667935423298E9;15836;667936.702132303;-679;-16;380;15839;667936.6996323031;-8889;-2808;8084;0.0;0;0;0;0;98244;98244;0;0;0;0;0;7.952335;-1.9872879;0.0;0;0;0;0;0;0.0;-1;0.0;0.0;0.0;0.0;78;0;2;0;0;0;2;0
1.667935423309E9;15837;667936.711675324;-757;3;430;15840;667936.7091753241;-10193;1574;6509;0.0;0;0;0;0;98244;98244;0;0;0;0;0;7.9771643;-1.9779925;0.0;0;0;0;0;0;0.0;-1;0.0;0.0;0.0;0.0;78;0;2;0;0;0;2;0
1.667935423315E9;15838;667936.721205116;-840;-42;554;15841;667936.7187051161;-10149;6649;6413;0.0;0;0;0;0;98242;98242;0;0;0;0;0;8.047885;-1.9486012;0.0;0;0;0;0;0;0.0;-1;0.0;0.0;0.0;0.0;78;0;2;0;0;0;2;0
1.667935423328E9;15839;667936.730721574;-955;-36;632;15842;667936.7282215741;-7673;7979;6702;0.0;0;0;0;0;98242;98242;0;0;0;0;0;8.135692;-1.927931;0.0;0;0;0;0;0;0.0;-1;0.0;0.0;0.0;0.0;78;0;2;0;0;0;2;0
1.667935423338E9;15840;667936.7402646471;-1056;-33;625;15843;667936.737764647;-5459;5416;6037;0.0;0;0;0;0;98242;98242;0;0;0;0;0;8.201127;-1.9223924;0.0;0;0;0;0;0;0.0;-1;0.0;0.0;0.0;0.0;78;0;2;0;0;0;2;0
1.667935423346E9;15841;667936.7497944391;-1109;-46;577;15844;667936.747294439;-5372;2353;7664;0.0;0;0;0;0;98242;98242;0;0;0;0;0;8.244017;-1.9425858;0.0;0;0;0;0;0;0.0;-1;0.0;0.0;0.0;0.0;78;0;2;0;0;0;2;0
1.667935423355E9;15842;667936.7593108971;-1112;-34;555;15845;667936.756810897;-6921;-297;8933;0.0;0;0;0;0;98240;98240;0;0;0;0;0;8.264109;-1.9766074;0.0;0;0;0;0;0;0.0;-1;0.0;0.0;0.0;0.0;78;0;2;0;0;0;2;0
1.667935423366E9;15843;667936.76885397;-1048;-59;533;15846;667936.76635397;-8828;-1828;8924;0.0;0;0;0;0;98240;98240;0;0;0;0;0;8.266625;-2.0081434;0.0;0;0;0;0;0;0.0;-1;0.0;0.0;0.0;0.0;78;0;2;0;0;0;2;0
1.667935423375E9;15844;667936.778383709;-960;-49;509;15847;667936.7758837091;-10447;-3998;7734;0.0;0;0;0;0;98240;98240;0;0;0;0;0;8.242264;-2.0315347;0.0;0;0;0;0;0;0.0;-1;0.0;0.0;0.0;0.0;78;0;2;0;0;0;2;0
1.667935423384E9;15845;667936.787913501;-924;-38;487;15848;667936.7854135011;-10079;-5451;5074;0.0;0;0;0;0;98240;98240;0;0;0;0;0;8.196181;-2.0410044;0.0;0;0;0;0;0;0.0;-1;0.0;0.0;0.0;0.0;78;0;2;0;0;0;2;0
1.6679354233960001E9;15846;667936.797443293;-858;-65;438;15849;667936.7949432931;-7962;-2799;4523;0.0;0;0;0;0;98238;98238;0;0;0;0;0;8.176501;-2.0450406;0.0;0;0;0;0;0;0.0;-1;0.0;0.0;0.0;0.0;78;0;2;0;0;0;2;0
1.667935423403E9;15847;667936.8069730321;-829;-47;424;15850;667936.804473032;-6221;1583;4366;0.0;0;0;0;0;98238;98238;0;0;0;0;0;8.199473;-2.038415;0.0;0;0;0;0;0;0.0;-1;0.0;0.0;0.0;0.0;78;0;2;0;0;0;2;0
1.667935423414E9;15848;667936.8165028241;-816;-55;458;15851;667936.814002824;-5311;4374;4917;0.0;0;0;0;0;98238;98238;0;0;0;0;0;8.25128;-2.0294642;0.0;0;0;0;0;0;0.0;-1;0.0;0.0;0.0;0.0;78;0;2;0;0;0;2;0
1.667935423424E9;15849;667936.826032564;-784;-37;496;15852;667936.823532564;-4672;3263;6964;0.0;0;0;0;0;98238;98238;0;0;0;0;0;8.300877;-2.0442648;0.0;0;0;0;0;0;0.0;-1;0.0;0.0;0.0;0.0;78;0;2;0;0;0;2;0
1.667935423433E9;15850;667936.835562355;-826;6;512;15853;667936.833062355;-4724;271;6422;0.0;0;0;0;0;98238;98238;0;0;0;0;0;8.32079;-2.0663428;0.0;0;0;0;0;0;0.0;-1;0.0;0.0;0.0;0.0;78;0;2;0;0;0;2;0
1.667935423443E9;15851;667936.845092147;-847;6;485;15854;667936.8425921471;-5853;-428;5223;0.0;0;0;0;0;98238;98238;0;0;0;0;0;8.327896;-2.0766203;0.0;0;0;0;0;0;0.0;-1;0.0;0.0;0.0;0.0;78;0;2;0;0;0;2;0
1.667935423456E9;15852;667936.854621886;-854;-14;471;15855;667936.8521218861;-9047;-236;5757;0.0;0;0;0;0;98238;98238;0;0;0;0;0;8.332738;-2.0764318;0.0;0;0;0;0;0;0.0;-1;0.0;0.0;0.0;0.0;78;0;2;0;0;0;2;0
1.667935423461E9;15853;667936.864151678;-917;-47;555;15856;667936.861651678;-10333;1574;5389;0.0;0;0;0;0;98238;98238;0;0;0;0;0;8.350374;-2.0606968;0.0;0;0;0;0;0;0.0;-1;0.0;0.0;0.0;0.0;78;0;2;0;0;0;2;0
1.667935423471E9;15854;667936.873668189;-1011;-41;696;15857;667936.871168189;-6737;5407;6588;0.0;0;0;0;0;98238;98238;0;0;0;0;0;8.41343;-2.0555887;0.0;0;0;0;0;0;0.0;-1;0.0;0.0;0.0;0.0;78;0;2;0;0;0;2;0
1.667935423479E9;15855;667936.8832112091;-1094;-33;753;15858;667936.880711209;-2834;4724;8163;0.0;0;0;0;0;98242;98242;0;0;0;0;0;8.482208;-2.0831645;0.0;0;0;0;0;0;0.0;-1;0.0;0.0;0.0;0.0;78;0;2;0;0;0;2;0
1.667935423493E9;15856;667936.8927410011;-1126;-62;697;15859;667936.890241001;-2729;-1041;8338;0.0;0;0;0;0;98242;98242;0;0;0;0;0;8.498555;-2.1352842;0.0;0;0;0;0;0;0.0;-1;0.0;0.0;0.0;0.0;78;0;2;0;0;0;2;0
1.667935423502E9;15857;667936.902257459;-1080;-53;578;15860;667936.8997574591;-6667;-6693;8128;0.0;0;0;0;0;98242;98242;0;0;0;0;0;8.455179;-2.1905055;0.0;0;0;0;0;0;0.0;-1;0.0;0.0;0.0;0.0;78;0;2;0;0;0;2;0
1.6679354235080001E9;15858;667936.911800532;-1021;-58;515;15861;667936.9093005321;-11269;-8032;5993;0.0;0;0;0;0;98242;98242;0;0;0;0;0;8.383821;-2.2134268;0.0;0;0;0;0;0;0.0;-1;0.0;0.0;0.0;0.0;78;0;2;0;0;0;2;0
1.667935423515E9;15859;667936.921330324;-965;-76;534;15862;667936.9188303241;-11505;-3167;4987;0.0;0;0;0;0;98230;98230;0;0;0;0;0;8.3531685;-2.2079694;0.0;0;0;0;0;0;0.0;-1;0.0;0.0;0.0;0.0;78;0;2;0;0;0;2;0
1.667935423528E9;15860;667936.930860064;-963;-67;576;15863;667936.928360064;-7148;2554;4707;0.0;0;0;0;0;98230;98230;0;0;0;0;0;8.381694;-2.1970448;0.0;0;0;0;0;0;0.0;-1;0.0;0.0;0.0;0.0;78;0;2;0;0;0;2;0
1.667935423539E9;15861;667936.9403898551;-966;-74;563;15864;667936.937889855;-2327;3823;3893;0.0;0;0;0;0;98230;98230;0;0;0;0;0;8.427361;-2.1960278;0.0;0;0;0;0;0;0.0;-1;0.0;0.0;0.0;0.0;78;0;2;0;0;0;2;0
1.667935423546E9;15862;667936.949919595;-894;-82;480;15865;667936.9474195951;-1811;-621;4418;0.0;0;0;0;0;98230;98230;0;0;0;0;0;8.434767;-2.2190566;0.0;0;0;0;0;0;0.0;-1;0.0;0.0;0.0;0.0;78;0;2;0;0;0;2;0
1.667935423555E9;15863;667936.959449386;-881;-33;428;15866;667936.956949386;-3902;-5984;3727;0.0;0;0;0;0;98229;98229;0;0;0;0;0;8.386794;-2.2483778;0.0;0;0;0;0;0;0.0;-1;0.0;0.0;0.0;0.0;78;0;2;0;0;0;2;0
1.6679354235670002E9;15864;667936.968979178;-860;-25;429;15867;667936.966479178;-4759;-4803;4138;0.0;0;0;0;0;98229;98229;0;0;0;0;0;8.349584;-2.2723856;0.0;0;0;0;0;0;0.0;-1;0.0;0.0;0.0;0.0;78;0;2;0;0;0;2;0
1.6679354235770001E9;15865;667936.9785089181;-835;-15;430;15868;667936.976008918;-4637;-1679;5311;0.0;0;0;0;0;98229;98229;0;0;0;0;0;8.345238;-2.2938592;0.0;0;0;0;0;0;0.0;-1;0.0;0.0;0.0;0.0;78;0;2;0;0;0;2;0
1.667935423584E9;15866;667936.988038709;-885;-21;483;15869;667936.9855387091;-4934;691;4873;0.0;0;0;0;0;98229;98229;0;0;0;0;0;8.360284;-2.3011122;0.0;0;0;0;0;0;0.0;-1;0.0;0.0;0.0;0.0;78;0;2;0;0;0;2;0
1.667935423593E9;15867;667936.997568501;-916;-53;564;15870;667936.9950685011;-4453;3473;6404;0.0;0;0;0;0;98229;98229;0;0;0;0;0;8.406643;-2.3117883;0.0;0;0;0;0;0;0.0;-1;0.0;0.0;0.0;0.0;78;0;2;0;0;0;2;0
1.667935423603E9;15868;667937.007098241;-958;-36;617;15871;667937.0045982411;-3753;3473;7603;0.0;0;0;0;0;98232;98232;0;0;0;0;0;8.457979;-2.3351579;0.0;0;0;0;0;0;0.0;-1;0.0;0.0;0.0;0.0;78;0;2;0;0;0;2;0
1.667935423614E9;15869;667937.0166280321;-969;-33;610;15872;667937.014128032;-5083;822;7813;0.0;0;0;0;0;98232;98232;0;0;0;0;0;8.482858;-2.3647616;0.0;0;0;0;0;0;0.0;-1;0.0;0.0;0.0;0.0;78;0;2;0;0;0;2;0
1.667935423625E9;15870;667937.026157772;-967;3;572;15873;667937.023657772;-8828;-1828;7376;0.0;0;0;0;0;98232;98232;0;0;0;0;0;8.474733;-2.3847833;0.0;0;0;0;0;0;0.0;-1;0.0;0.0;0.0;0.0;78;0;2;0;0;0;2;0
1.667935423631E9;15871;667937.035687564;-977;-2;563;15874;667937.033187564;-12293;-2817;5958;0.0;0;0;0;0;98232;98232;0;0;0;0;0;8.446073;-2.382098;0.0;0;0;0;0;0;0.0;-1;0.0;0.0;0.0;0.0;78;0;2;0;0;0;2;0
1.667935423642E9;15872;667937.045217355;-895;-66;538;15875;667937.0427173551;-11444;-1846;5678;0.0;0;0;0;0;98228;98228;0;0;0;0;0;8.426873;-2.3771224;0.0;0;0;0;0;0;0.0;-1;0.0;0.0;0.0;0.0;78;0;2;0;0;0;2;0
1.667935423652E9;15873;667937.0547470951;-895;-61;525;15876;667937.052247095;-7559;-227;5066;0.0;0;0;0;0;98228;98228;0;0;0;0;0;8.427431;-2.378008;0.0;0;0;0;0;0;0.0;-1;0.0;0.0;0.0;0.0;78;0;2;0;0;0;2;0
1.667935423721E9;15874;667937.064276886;-932;-53;538;15877;667937.061776886;-3237;831;4401;0.0;0;0;0;0;98228;98228;0;0;0;0;0;8.4431095;-2.3884473;0.0;0;0;0;0;0;0.0;-1;0.0;0.0;0.0;0.0;78;0;2;0;0;0;2;0
1.667935423721E9;15875;667937.073806626;-930;-21;527;15878;667937.0713066261;-1233;-2082;5486;0.0;0;0;0;0;98228;98228;0;0;0;0;0;8.439369;-2.4278286;0.0;0;0;0;0;0;0.0;-1;0.0;0.0;0.0;0.0;78;0;2;0;0;0;2;0
1.667935423721E9;15876;667937.083336418;-940;-3;519;15879;667937.0808364181;-2546;-8417;5582;0.0;0;0;0;0;98225;98225;0;0;0;0;0;8.375514;-2.4869297;0.0;0;0;0;0;0;0.0;-1;0.0;0.0;0.0;0.0;78;0;2;0;0;0;2;0
1.667935423721E9;15877;667937.092866209;-912;-23;506;15880;667937.090366209;-3237;-11689;5451;0.0;0;0;0;0;98225;98225;0;0;0;0;0;8.280209;-2.554452;0.0;0;0;0;0;0;0.0;-1;0.0;0.0;0.0;0.0;78;0;2;0;0;0;2;0
1.667935423721E9;15878;667937.1023959491;-848;-20;456;15881;667937.099895949;-3806;-11689;6851;0.0;0;0;0;0;98225;98225;0;0;0;0;0;8.189027;-2.6301968;0.0;0;0;0;0;0;0.0;-1;0.0;0.0;0.0;0.0;78;0;2;0;0;0;2;0
1.667935423721E9;15879;667937.1119257411;-784;-31;419;15882;667937.109425741;-5582;-10447;6964;0.0;0;0;0;0;98225;98225;0;0;0;0;0;8.106521;-2.6935802;0.0;0;0;0;0;0;0.0;-1;0.0;0.0;0.0;0.0;78;0;2;0;0;0;2;0
1.667935423721E9;15880;667937.121455532;-734;0;404;15883;667937.1189555321;-6816;-6343;6999;0.0;0;0;0;0;98224;98224;0;0;0;0;0;8.059503;-2.7351875;0.0;0;0;0;0;0;0.0;-1;0.0;0.0;0.0;0.0;78;0;2;0;0;0;2;0
1.667935423726E9;15881;667937.130971991;-696;13;401;15884;667937.128471991;-8539;-1688;5976;0.0;0;0;0;0;98224;98224;0;0;0;0;0;8.048233;-2.742418;0.0;0;0;0;0;0;0.0;-1;0.0;0.0;0.0;0.0;78;0;2;0;0;0;2;0
1.667935423738E9;15882;667937.140515064;-769;4;471;15885;667937.1380150641;-9703;3386;2931;0.0;0;0;0;0;98224;98224;0;0;0;0;0;8.070474;-2.700301;0.0;0;0;0;0;0;0.0;-1;0.0;0.0;0.0;0.0;78;0;2;0;0;0;2;0
1.667935423746E9;15883;667937.150044803;-860;-20;587;15886;667937.1475448031;-6754;8189;4392;0.0;0;0;0;0;98224;98224;0;0;0;0;0;8.146942;-2.6644692;0.0;0;0;0;0;0;0.0;-1;0.0;0.0;0.0;0.0;78;0;2;0;0;0;2;0
1.667935423754E9;15884;667937.159561314;-954;-32;652;15887;667937.1570613141;-796;8426;6054;0.0;0;0;0;0;98221;98221;0;0;0;0;0;8.241971;-2.6678147;0.0;0;0;0;0;0;0.0;-1;0.0;0.0;0.0;0.0;78;0;2;0;0;0;2;0
1.667935423766E9;15885;667937.169104386;-1003;-23;620;15888;667937.1666043861;2852;2939;7376;0.0;0;0;0;0;98221;98221;0;0;0;0;0;8.297613;-2.719572;0.0;0;0;0;0;0;0.0;-1;0.0;0.0;0.0;0.0;78;0;2;0;0;0;2;0
1.667935423783E9;15886;667937.1786341261;-992;-6;513;15889;667937.176134126;-796;-5136;7533;0.0;0;0;0;0;98221;98221;0;0;0;0;0;8.272618;-2.7880578;0.0;0;0;0;0;0;0.0;-1;0.0;0.0;0.0;0.0;78;0;2;0;0;0;2;0
1.667935423783E9;15887;667937.1881639181;-913;-9;439;15890;667937.185663918;-9335;-11777;5538;0.0;0;0;0;0;98221;98221;0;0;0;0;0;8.163743;-2.8286974;0.0;0;0;0;0;0;0.0;-1;0.0;0.0;0.0;0.0;78;0;2;0;0;0;2;0
1.6679354238E9;15888;667937.197693709;-815;-19;430;15891;667937.195193709;-15067;-13815;4593;0.0;0;0;0;0;98221;98221;0;0;0;0;0;8.02245;-2.844055;0.0;0;0;0;0;0;0.0;-1;0.0;0.0;0.0;0.0;78;0;2;0;0;0;2;0
1.667935423803E9;15889;667937.207223449;-774;3;436;15892;667937.2047234491;-13098;-9913;3324;0.0;0;0;0;0;98224;98224;0;0;0;0;0;7.916873;-2.842367;0.0;0;0;0;0;0;0.0;-1;0.0;0.0;0.0;0.0;78;0;2;0;0;0;2;0
1.667935423819E9;15890;667937.2167399591;-729;-22;382;15893;667937.214239959;-6334;-3001;2992;0.0;0;0;0;0;98224;98224;0;0;0;0;0;7.8867393;-2.8409898;0.0;0;0;0;0;0;0.0;-1;0.0;0.0;0.0;0.0;78;0;2;0;0;0;2;0
1.66793542382E9;15891;667937.2262829801;-667;-22;292;15894;667937.22378298;-2528;971;4261;0.0;0;0;0;0;98224;98224;0;0;0;0;0;7.904576;-2.8512058;0.0;0;0;0;0;0;0.0;-1;0.0;0.0;0.0;0.0;78;0;2;0;0;0;2;0
1.667935423836E9;15892;667937.2358127721;-622;-7;286;15895;667937.233312772;-3377;1601;4602;0.0;0;0;0;0;98224;98224;0;0;0;0;0;7.9274716;-2.8579092;0.0;0;0;0;0;0;0.0;-1;0.0;0.0;0.0;0.0;78;0;2;0;0;0;2;0
1.667935423853E9;15893;667937.245329282;-657;-12;420;15896;667937.2428292821;-3884;2362;5783;0.0;0;0;0;0;98221;98221;0;0;0;0;0;7.9601526;-2.8688383;0.0;0;0;0;0;0;0.0;-1;0.0;0.0;0.0;0.0;78;0;2;0;0;0;2;0
1.667935423853E9;15894;667937.254872303;-824;33;623;15897;667937.252372303;647;4182;7559;0.0;0;0;0;0;98221;98221;0;0;0;0;0;8.0239525;-2.907057;0.0;0;0;0;0;0;0.0;-1;0.0;0.0;0.0;0.0;78;0;2;0;0;0;2;0
1.667935423869E9;15895;667937.264402095;-940;40;713;15898;667937.261902095;5888;3928;8242;0.0;0;0;0;0;98221;98221;0;0;0;0;0;8.0973835;-2.974995;0.0;0;0;0;0;0;0.0;-1;0.0;0.0;0.0;0.0;78;0;2;0;0;0;2;0
1.667935423869E9;15896;667937.2739186051;-996;18;615;15899;667937.271418605;3386;-4917;9318;0.0;0;0;0;0;98221;98221;0;0;0;0;0;8.088347;-3.074889;0.0;0;0;0;0;0;0.0;-1;0.0;0.0;0.0;0.0;78;0;2;0;0;0;2;0
1.667935423886E9;15897;667937.283461626;-1042;51;510;15900;667937.2809616261;-6474;-15732;7341;0.0;0;0;0;0;98228;98228;0;0;0;0;0;7.9544344;-3.1572723;0.0;0;0;0;0;0;0.0;-1;0.0;0.0;0.0;0.0;78;0;2;0;0;0;2;0
1.667935423902E9;15898;667937.292991418;-950;3;462;15901;667937.2904914181;-15049;-16808;5661;0.0;0;0;0;0;98228;98228;0;0;0;0;0;7.7886295;-3.1916497;0.0;0;0;0;0;0;0.0;-1;0.0;0.0;0.0;0.0;78;0;2;0;0;0;2;0
1.667935423902E9;15899;667937.3025211571;-918;1;483;15902;667937.300021157;-17429;-9650;3359;0.0;0;0;0;0;98228;98228;0;0;0;0;0;7.676436;-3.168384;0.0;0;0;0;0;0;0.0;-1;0.0;0.0;0.0;0.0;78;0;2;0;0;0;2;0
1.6679354239190001E9;15900;667937.3120509491;-873;-57;510;15903;667937.309550949;-12730;-384;2712;0.0;0;0;0;0;98228;98228;0;0;0;0;0;7.6565366;-3.1246867;0.0;0;0;0;0;0;0.0;-1;0.0;0.0;0.0;0.0;78;0;2;0;0;0;2;0
1.6679354239190001E9;15901;667937.321580689;-821;-66;517;15904;667937.319080689;-4821;5136;4917;0.0;0;0;0;0;98229;98229;0;0;0;0;0;7.710184;-3.112841;0.0;0;0;0;0;0;0.0;-1;0.0;0.0;0.0;0.0;78;0;2;0;0;0;2;0
1.667935423936E9;15902;667937.33111048;-871;-40;556;15905;667937.3286104801;1277;5092;5529;0.0;0;0;0;0;98229;98229;0;0;0;0;0;7.777073;-3.1337392;0.0;0;0;0;0;0;0.0;-1;0.0;0.0;0.0;0.0;78;0;2;0;0;0;2;0
1.667935423936E9;15903;667937.340640272;-882;-26;596;15906;667937.3381402721;4488;936;6632;0.0;0;0;0;0;98229;98229;0;0;0;0;0;7.815578;-3.1941967;0.0;0;0;0;0;0;0.0;-1;0.0;0.0;0.0;0.0;78;0;2;0;0;0;2;0
1.667935423951E9;15904;667937.350170011;-849;29;549;15907;667937.347670011;2703;-8461;7866;0.0;0;0;0;0;98229;98229;0;0;0;0;0;7.768611;-3.2931843;0.0;0;0;0;0;0;0.0;-1;0.0;0.0;0.0;0.0;78;0;2;0;0;0;2;0
1.667935423955E9;15905;667937.359699803;-808;25;440;15908;667937.357199803;-3342;-17455;6116;0.0;0;0;0;0;98218;98218;0;0;0;0;0;7.6216516;-3.386008;0.0;0;0;0;0;0;0.0;-1;0.0;0.0;0.0;0.0;78;0;2;0;0;0;2;0
1.667935423969E9;15906;667937.3692295951;-707;31;334;15909;667937.366729595;-8592;-17271;6002;0.0;0;0;0;0;98218;98218;0;0;0;0;0;7.4660797;-3.4529393;0.0;0;0;0;0;0;0.0;-1;0.0;0.0;0.0;0.0;78;0;2;0;0;0;2;0
1.6679354239850001E9;15907;667937.3787593341;-585;22;267;15910;667937.376259334;-10910;-8032;4943;0.0;0;0;0;0;98218;98218;0;0;0;0;0;7.387298;-3.4641285;0.0;0;0;0;0;0;0.0;-1;0.0;0.0;0.0;0.0;78;0;2;0;0;0;2;0
1.667935423986E9;15908;667937.3882758451;-512;-20;259;15911;667937.385775845;-10840;4628;2843;0.0;0;0;0;0;98218;98218;0;0;0;0;0;7.4175363;-3.409205;0.0;0;0;0;0;0;0.0;-1;0.0;0.0;0.0;0.0;78;0;2;0;0;0;2;0
1.667935424003E9;15909;667937.3978188661;-488;3;344;15912;667937.395318866;-8627;14655;1329;0.0;0;0;0;0;98233;98233;0;0;0;0;0;7.538545;-3.3134704;0.0;0;0;0;0;0;0.0;-1;0.0;0.0;0.0;0.0;78;0;2;0;0;0;2;0
1.667935424003E9;15910;667937.407348657;-677;33;487;15913;667937.4048486571;-5179;19048;0;0.0;0;0;0;0;98233;98233;0;0;0;0;0;7.7014165;-3.2063892;0.0;0;0;0;0;0;0.0;-1;0.0;0.0;0.0;0.0;78;0;2;0;0;0;2;0
1.667935424019E9;15911;667937.416865168;-783;35;710;15914;667937.4143651681;-1128;17184;3062;0.0;0;0;0;0;98233;98233;0;0;0;0;0;7.8647413;-3.1500688;0.0;0;0;0;0;0;0.0;-1;0.0;0.0;0.0;0.0;78;0;2;0;0;0;2;0
1.667935424023E9;15912;667937.426408189;-971;39;884;15915;667937.423908189;3954;8513;3989;0.0;0;0;0;0;98233;98233;0;0;0;0;0;7.961025;-3.1585097;0.0;0;0;0;0;0;0.0;-1;0.0;0.0;0.0;0.0;78;0;2;0;0;0;2;0
1.6679354240310001E9;15913;667937.4359379801;-1143;-10;867;15916;667937.43343798;6229;-5529;6404;0.0;0;0;0;0;98233;98233;0;0;0;0;0;7.9411316;-3.2516713;0.0;0;0;0;0;0;0.0;-1;0.0;0.0;0.0;0.0;78;0;2;0;0;0;2;0
1.667935424042E9;15914;667937.4454544911;-1216;9;695;15917;667937.442954491;559;-18978;9169;0.0;0;0;0;0;98230;98230;0;0;0;0;0;7.7965655;-3.3940785;0.0;0;0;0;0;0;0.0;-1;0.0;0.0;0.0;0.0;78;0;2;0;0;0;2;0
1.667935424053E9;15915;667937.454997511;-1213;6;550;15918;667937.452497511;-10482;-21664;8810;0.0;0;0;0;0;98230;98230;0;0;0;0;0;7.604674;-3.4938662;0.0;0;0;0;0;0;0.0;-1;0.0;0.0;0.0;0.0;78;0;2;0;0;0;2;0
1.667935424062E9;15916;667937.464527303;-1003;-39;520;15919;667937.4620273031;-18409;-13063;7367;0.0;0;0;0;0;98230;98230;0;0;0;0;0;7.471172;-3.5117066;0.0;0;0;0;0;0;0.0;-1;0.0;0.0;0.0;0.0;78;0;2;0;0;0;2;0
1.66793542407E9;15917;667937.4740570431;-893;-40;542;15920;667937.471557043;-17831;-1863;3447;0.0;0;0;0;0;98230;98230;0;0;0;0;0;7.4285035;-3.456669;0.0;0;0;0;0;0;0.0;-1;0.0;0.0;0.0;0.0;78;0;2;0;0;0;2;0
1.667935424078E9;15918;667937.483586834;-835;-84;546;15921;667937.481086834;-10359;6649;-183;0.0;0;0;0;0;98225;98225;0;0;0;0;0;7.4666758;-3.3737228;0.0;0;0;0;0;0;0.0;-1;0.0;0.0;0.0;0.0;78;0;2;0;0;0;2;0
1.667935424092E9;15919;667937.493116626;-786;-74;545;15922;667937.490616626;-384;11348;577;0.0;0;0;0;0;98225;98225;0;0;0;0;0;7.5701118;-3.324297;0.0;0;0;0;0;0;0.0;-1;0.0;0.0;0.0;0.0;78;0;2;0;0;0;2;0
1.667935424098E9;15920;667937.502646366;-774;-56;494;15923;667937.5001463661;6229;7481;1636;0.0;0;0;0;0;98225;98225;0;0;0;0;0;7.6543136;-3.3288033;0.0;0;0;0;0;0;0.0;-1;0.0;0.0;0.0;0.0;78;0;2;0;0;0;2;0
1.667935424107E9;15921;667937.5121761571;-740;-10;430;15924;667937.509676157;5162;-3447;4208;0.0;0;0;0;0;98225;98225;0;0;0;0;0;7.6447096;-3.3919148;0.0;0;0;0;0;0;0.0;-1;0.0;0.0;0.0;0.0;78;0;2;0;0;0;2;0
1.667935424116E9;15922;667937.5217058971;-679;49;407;15925;667937.519205897;-813;-12932;6107;0.0;0;0;0;0;98230;98230;0;0;0;0;0;7.5428543;-3.4802108;0.0;0;0;0;0;0;0.0;-1;0.0;0.0;0.0;0.0;78;0;2;0;0;0;2;0
1.667935424128E9;15923;667937.531222407;-688;16;458;15926;667937.5287224071;-6623;-13439;4803;0.0;0;0;0;0;98230;98230;0;0;0;0;0;7.420606;-3.5334072;0.0;0;0;0;0;0;0.0;-1;0.0;0.0;0.0;0.0;78;0;2;0;0;0;2;0
1.667935424141E9;15924;667937.54076548;-749;21;585;15927;667937.5382654801;-7376;-6413;4969;0.0;0;0;0;0;98230;98230;0;0;0;0;0;7.3620415;-3.5565593;0.0;0;0;0;0;0;0.0;-1;0.0;0.0;0.0;0.0;78;0;2;0;0;0;2;0
1.667935424145E9;15925;667937.55029522;-827;-8;640;15928;667937.54779522;-4304;1312;4733;0.0;0;0;0;0;98230;98230;0;0;0;0;0;7.379627;-3.5614333;0.0;0;0;0;0;0;0.0;-1;0.0;0.0;0.0;0.0;78;0;2;0;0;0;2;0
1.667935424218E9;15926;667937.5598250111;-851;-34;644;15929;667937.557325011;-3771;6746;5827;0.0;0;0;0;0;98231;98231;0;0;0;0;0;7.4513865;-3.5562103;0.0;0;0;0;0;0;0.0;-1;0.0;0.0;0.0;0.0;78;0;2;0;0;0;2;0
1.667935424218E9;15927;667937.569354751;-915;-2;705;15930;667937.5668547511;-6273;10350;5092;0.0;0;0;0;0;98231;98231;0;0;0;0;0;7.547994;-3.519873;0.0;0;0;0;0;0;0.0;-1;0.0;0.0;0.0;0.0;78;0;2;0;0;0;2;0
1.667935424218E9;15928;667937.578884543;-1044;-35;787;15931;667937.5763845431;-8119;12153;4147;0.0;0;0;0;0;98231;98231;0;0;0;0;0;7.653519;-3.4610662;0.0;0;0;0;0;0;0.0;-1;0.0;0.0;0.0;0.0;78;0;2;0;0;0;2;0
1.667935424218E9;15929;667937.588401053;-1037;-32;803;15932;667937.585901053;-7962;9160;6203;0.0;0;0;0;0;98231;98231;0;0;0;0;0;7.7382975;-3.4317086;0.0;0;0;0;0;0;0.0;-1;0.0;0.0;0.0;0.0;78;0;2;0;0;0;2;0
1.667935424218E9;15930;667937.597944126;-1019;-41;686;15933;667937.595444126;-7078;3184;3928;0.0;0;0;0;0;98231;98231;0;0;0;0;0;7.7619405;-3.412205;0.0;0;0;0;0;0;0.0;-1;0.0;0.0;0.0;0.0;78;0;2;0;0;0;2;0
1.667935424218E9;15931;667937.6074738661;-889;-49;547;15934;667937.604973866;-7402;-1338;1994;0.0;0;0;0;0;98230;98230;0;0;0;0;0;7.736752;-3.3939433;0.0;0;0;0;0;0;0.0;-1;0.0;0.0;0.0;0.0;78;0;2;0;0;0;2;0
1.667935424218E9;15932;667937.617003657;-826;-25;491;15935;667937.6145036571;-7393;-3351;43;0.0;0;0;0;0;98230;98230;0;0;0;0;0;7.6865034;-3.3683455;0.0;0;0;0;0;0;0.0;-1;0.0;0.0;0.0;0.0;78;0;2;0;0;0;2;0
1.6679354242220001E9;15933;667937.626533397;-774;-52;521;15936;667937.6240333971;-4558;-2852;-428;0.0;0;0;0;0;98230;98230;0;0;0;0;0;7.6449437;-3.3500578;0.0;0;0;0;0;0;0.0;-1;0.0;0.0;0.0;0.0;78;0;2;0;0;0;2;0
1.667935424232E9;15934;667937.636063189;-769;-7;574;15937;667937.6335631891;971;-2003;664;0.0;0;0;0;0;98230;98230;0;0;0;0;0;7.625874;-3.3622885;0.0;0;0;0;0;0;0.0;-1;0.0;0.0;0.0;0.0;78;0;2;0;0;0;2;0
1.667935424241E9;15935;667937.6455929801;-836;17;561;15938;667937.64309298;4602;-4007;-131;0.0;0;0;0;0;98230;98230;0;0;0;0;0;7.5929165;-3.3925934;0.0;0;0;0;0;0;0.0;-1;0.0;0.0;0.0;0.0;78;0;2;0;0;0;2;0
1.667935424253E9;15936;667937.65512272;-804;4;524;15939;667937.65262272;3062;-7769;1767;0.0;0;0;0;0;98230;98230;0;0;0;0;0;7.528863;-3.4458115;0.0;0;0;0;0;0;0.0;-1;0.0;0.0;0.0;0.0;78;0;2;0;0;0;2;0
1.667935424261E9;15937;667937.664652511;-836;19;548;15940;667937.6621525111;-551;-8819;2931;0.0;0;0;0;0;98230;98230;0;0;0;0;0;7.4519725;-3.495927;0.0;0;0;0;0;0;0.0;-1;0.0;0.0;0.0;0.0;78;0;2;0;0;0;2;0
1.667935424269E9;15938;667937.6741822511;-874;-35;629;15941;667937.671682251;-1924;-4164;4016;0.0;0;0;0;0;98230;98230;0;0;0;0;0;7.418646;-3.5299873;0.0;0;0;0;0;0;0.0;-1;0.0;0.0;0.0;0.0;78;0;2;0;0;0;2;0
1.667935424279E9;15939;667937.683712043;-900;-23;721;15942;667937.681212043;-1679;1461;6229;0.0;0;0;0;0;98222;98222;0;0;0;0;0;7.4445753;-3.5605729;0.0;0;0;0;0;0;0.0;-1;0.0;0.0;0.0;0.0;78;0;2;0;0;0;2;0
1.66793542429E9;15940;667937.6932418341;-958;-28;702;15943;667937.690741834;-2108;2642;5101;0.0;0;0;0;0;98222;98222;0;0;0;0;0;7.4762144;-3.5756552;0.0;0;0;0;0;0;0.0;-1;0.0;0.0;0.0;0.0;78;0;2;0;0;0;2;0
1.667935424299E9;15941;667937.702771574;-877;-24;580;15944;667937.7002715741;-6142;1382;3596;0.0;0;0;0;0;98222;98222;0;0;0;0;0;7.4826427;-3.5655558;0.0;0;0;0;0;0;0.0;-1;0.0;0.0;0.0;0.0;78;0;2;0;0;0;2;0
1.667935424309E9;15942;667937.712301366;-839;5;500;15945;667937.7098013661;-11960;1846;113;0.0;0;0;0;0;98222;98222;0;0;0;0;0;7.4694834;-3.4998002;0.0;0;0;0;0;0;0.0;-1;0.0;0.0;0.0;0.0;78;0;2;0;0;0;2;0
1.667935424316E9;15943;667937.721831157;-776;-54;505;15946;667937.719331157;-13964;5109;-1881;0.0;0;0;0;0;98229;98229;0;0;0;0;0;7.47529;-3.3967583;0.0;0;0;0;0;0;0.0;-1;0.0;0.0;0.0;0.0;78;0;2;0;0;0;2;0
1.667935424328E9;15944;667937.7313608971;-734;-32;581;15947;667937.728860897;-9362;6649;-174;0.0;0;0;0;0;98229;98229;0;0;0;0;0;7.510075;-3.3227828;0.0;0;0;0;0;0;0.0;-1;0.0;0.0;0.0;0.0;78;0;2;0;0;0;2;0
1.667935424339E9;15945;667937.7408906891;-809;-18;621;15948;667937.738390689;-1041;2721;-78;0.0;0;0;0;0;98229;98229;0;0;0;0;0;7.525524;-3.3033378;0.0;0;0;0;0;0;0.0;-1;0.0;0.0;0.0;0.0;78;0;2;0;0;0;2;0
1.667935424348E9;15946;667937.750420428;-834;-4;598;15949;667937.747920428;4383;-3657;1749;0.0;0;0;0;0;98229;98229;0;0;0;0;0;7.4993105;-3.3483257;0.0;0;0;0;0;0;0.0;-1;0.0;0.0;0.0;0.0;78;0;2;0;0;0;2;0
1.667935424354E9;15947;667937.75995022;-885;19;551;15950;667937.7574502201;3911;-8802;2974;0.0;0;0;0;0;98229;98229;0;0;0;0;0;7.429137;-3.4210746;0.0;0;0;0;0;0;0.0;-1;0.0;0.0;0.0;0.0;78;0;2;0;0;0;2;0
1.667935424366E9;15948;667937.7694800111;-904;-41;573;15951;667937.766980011;87;-8959;3289;0.0;0;0;0;0;98229;98229;0;0;0;0;0;7.350999;-3.4793594;0.0;0;0;0;0;0;0.0;-1;0.0;0.0;0.0;0.0;78;0;2;0;0;0;2;0
1.667935424378E9;15949;667937.779009751;-929;-18;662;15952;667937.776509751;-1146;-4934;4794;0.0;0;0;0;0;98229;98229;0;0;0;0;0;7.312326;-3.5279694;0.0;0;0;0;0;0;0.0;-1;0.0;0.0;0.0;0.0;78;0;2;0;0;0;2;0
1.667935424386E9;15950;667937.788539543;-936;-24;671;15953;667937.786039543;-454;-1732;4506;0.0;0;0;0;0;98229;98229;0;0;0;0;0;7.3032293;-3.5647771;0.0;0;0;0;0;0;0.0;-1;0.0;0.0;0.0;0.0;78;0;2;0;0;0;2;0
1.667935424394E9;15951;667937.7980692821;-840;-15;611;15954;667937.795569282;-3368;-1041;4199;0.0;0;0;0;0;98229;98229;0;0;0;0;0;7.2932544;-3.5830913;0.0;0;0;0;0;0;0.0;-1;0.0;0.0;0.0;0.0;78;0;2;0;0;0;2;0
1.667935424405E9;15952;667937.8075990741;-865;20;626;15955;667937.805099074;-8618;183;1557;0.0;0;0;0;0;98229;98229;0;0;0;0;0;7.2746663;-3.551748;0.0;0;0;0;0;0;0.0;-1;0.0;0.0;0.0;0.0;78;0;2;0;0;0;2;0
1.667935424415E9;15953;667937.8171288661;-882;-28;693;15956;667937.814628866;-9344;3666;-507;0.0;0;0;0;0;98229;98229;0;0;0;0;0;7.279333;-3.4873374;0.0;0;0;0;0;0;0.0;-1;0.0;0.0;0.0;0.0;78;0;2;0;0;0;2;0
1.667935424424E9;15954;667937.826658605;-888;-4;693;15957;667937.8241586051;-5022;4164;87;0.0;0;0;0;0;98229;98229;0;0;0;0;0;7.2990375;-3.4459298;0.0;0;0;0;0;0;0.0;-1;0.0;0.0;0.0;0.0;78;0;2;0;0;0;2;0
1.667935424432E9;15955;667937.836188397;-886;-38;603;15958;667937.8336883971;-1671;629;69;0.0;0;0;0;0;98229;98229;0;0;0;0;0;7.29272;-3.4339707;0.0;0;0;0;0;0;0.0;-1;0.0;0.0;0.0;0.0;78;0;2;0;0;0;2;0
1.6679354244420002E9;15956;667937.845718189;-795;-67;533;15959;667937.8432181891;-1443;-1732;1837;0.0;0;0;0;0;98226;98226;0;0;0;0;0;7.2709703;-3.4465504;0.0;0;0;0;0;0;0.0;-1;0.0;0.0;0.0;0.0;78;0;2;0;0;0;2;0
1.6679354244520001E9;15957;667937.8552479281;-784;-19;546;15960;667937.852747928;-2493;-3543;1557;0.0;0;0;0;0;98226;98226;0;0;0;0;0;7.2293987;-3.4593053;0.0;0;0;0;0;0;0.0;-1;0.0;0.0;0.0;0.0;78;0;2;0;0;0;2;0
1.66793542446E9;15958;667937.8647777201;-777;-39;574;15961;667937.86227772;-3552;-4313;148;0.0;0;0;0;0;98226;98226;0;0;0;0;0;7.173774;-3.4591637;0.0;0;0;0;0;0;0.0;-1;0.0;0.0;0.0;0.0;78;0;2;0;0;0;2;0
1.667935424469E9;15959;667937.874307511;-756;-8;592;15962;667937.8718075111;-3841;-3552;419;0.0;0;0;0;0;98226;98226;0;0;0;0;0;7.1253905;-3.4569588;0.0;0;0;0;0;0;0.0;-1;0.0;0.0;0.0;0.0;78;0;2;0;0;0;2;0
1.667935424479E9;15960;667937.883837251;-764;-43;583;15963;667937.881337251;-3569;-1461;-568;0.0;0;0;0;0;98231;98231;0;0;0;0;0;7.093256;-3.4401119;0.0;0;0;0;0;0;0.0;-1;0.0;0.0;0.0;0.0;78;0;2;0;0;0;2;0
1.66793542449E9;15961;667937.893367043;-735;-28;569;15964;667937.890867043;-2449;629;-218;0.0;0;0;0;0;98231;98231;0;0;0;0;0;7.0834856;-3.423177;0.0;0;0;0;0;0;0.0;-1;0.0;0.0;0.0;0.0;78;0;2;0;0;0;2;0
1.667935424499E9;15962;667937.902896782;-802;2;563;15965;667937.9003967821;-1741;1951;-1067;0.0;0;0;0;0;98231;98231;0;0;0;0;0;7.084067;-3.3978207;0.0;0;0;0;0;0;0.0;-1;0.0;0.0;0.0;0.0;78;0;2;0;0;0;2;0
1.6679354245080001E9;15963;667937.912426574;-792;-12;551;15966;667937.9099265741;-2677;2992;-1146;0.0;0;0;0;0;98231;98231;0;0;0;0;0;7.091693;-3.363708;0.0;0;0;0;0;0;0.0;-1;0.0;0.0;0.0;0.0;78;0;2;0;0;0;2;0
1.667935424516E9;15964;667937.921956366;-776;14;535;15967;667937.919456366;-3946;2082;-174;0.0;0;0;0;0;98231;98231;0;0;0;0;0;7.091395;-3.335321;0.0;0;0;0;0;0;0.0;-1;0.0;0.0;0.0;0.0;78;0;2;0;0;0;2;0
1.667935424528E9;15965;667937.9314861051;-762;-26;510;15968;667937.928986105;-5354;551;-384;0.0;0;0;0;0;98231;98231;0;0;0;0;0;7.0732784;-3.3050966;0.0;0;0;0;0;0;0.0;-1;0.0;0.0;0.0;0.0;78;0;2;0;0;0;2;0
1.667935424538E9;15966;667937.9410158971;-729;-9;547;15969;667937.938515897;-5004;761;524;0.0;0;0;0;0;98231;98231;0;0;0;0;0;7.0606337;-3.2831085;0.0;0;0;0;0;0;0.0;-1;0.0;0.0;0.0;0.0;78;0;2;0;0;0;2;0
1.667935424546E9;15967;667937.9505456891;-816;22;614;15970;667937.948045689;-2589;909;411;0.0;0;0;0;0;98231;98231;0;0;0;0;0;7.053496;-3.2710366;0.0;0;0;0;0;0;0.0;-1;0.0;0.0;0.0;0.0;78;0;2;0;0;0;2;0
1.6679354245540001E9;15968;667937.960075428;-790;-24;628;15971;667937.9575754281;-673;288;1758;0.0;0;0;0;0;98236;98236;0;0;0;0;0;7.0487413;-3.28111;0.0;0;0;0;0;0;0.0;-1;0.0;0.0;0.0;0.0;78;0;2;0;0;0;2;0
1.6679354245670002E9;15969;667937.96960522;-786;15;595;15972;667937.9671052201;-1084;-2353;2257;0.0;0;0;0;0;98236;98236;0;0;0;0;0;7.020342;-3.3037748;0.0;0;0;0;0;0;0.0;-1;0.0;0.0;0.0;0.0;78;0;2;0;0;0;2;0
1.6679354245740001E9;15970;667937.979134959;-764;-12;546;15973;667937.976634959;-4401;-4663;1058;0.0;0;0;0;0;98236;98236;0;0;0;0;0;6.95988;-3.3108602;0.0;0;0;0;0;0;0.0;-1;0.0;0.0;0.0;0.0;78;0;2;0;0;0;2;0
1.667935424585E9;15971;667937.988664751;-722;6;538;15974;667937.986164751;-7034;-3421;743;0.0;0;0;0;0;98236;98236;0;0;0;0;0;6.9043336;-3.2985818;0.0;0;0;0;0;0;0.0;-1;0.0;0.0;0.0;0.0;78;0;2;0;0;0;2;0
1.667935424593E9;15972;667937.9981945431;-763;3;554;15975;667937.995694543;-6912;-498;-463;0.0;0;0;0;0;98236;98236;0;0;0;0;0;6.871531;-3.2661097;0.0;0;0;0;0;0;0.0;-1;0.0;0.0;0.0;0.0;78;0;2;0;0;0;2;0
1.667935424607E9;15973;667938.0077242821;-698;-41;551;15976;667938.005224282;-5223;2703;166;0.0;0;0;0;0;98236;98236;0;0;0;0;0;6.873251;-3.234226;0.0;0;0;0;0;0;0.0;-1;0.0;0.0;0.0;0.0;78;0;2;0;0;0;2;0
1.667935424614E9;15974;667938.017254074;-738;-7;575;15977;667938.014754074;-3386;3202;594;0.0;0;0;0;0;98236;98236;0;0;0;0;0;6.8841677;-3.2126791;0.0;0;0;0;0;0;0.0;-1;0.0;0.0;0.0;0.0;78;0;2;0;0;0;2;0
1.667935424624E9;15975;667938.0267838141;-789;-31;607;15978;667938.024283814;-1741;1671;-8;0.0;0;0;0;0;98236;98236;0;0;0;0;0;6.8816724;-3.2004013;0.0;0;0;0;0;0;0.0;-1;0.0;0.0;0.0;0.0;78;0;2;0;0;0;2;0
1.66793542463E9;15976;667938.036313605;-781;-10;609;15979;667938.0338136051;-524;-822;1137;0.0;0;0;0;0;98236;98236;0;0;0;0;0;6.8619437;-3.212946;0.0;0;0;0;0;0;0.0;-1;0.0;0.0;0.0;0.0;78;0;2;0;0;0;2;0
1.66793542464E9;15977;667938.045843397;-824;-10;574;15980;667938.0433433971;-1566;-4164;516;29.67358;0;0;0;0;98239;98239;0;0;0;0;0;6.5341973;-3.282099;0.0;0;0;1;0;0;0.0;-1;0.0;0.0;13.144;1.667935426E9;78;0;2;0;0;0;2;0
1.667935424651E9;15978;667938.0553731361;-746;-42;546;15981;667938.052873136;-3911;-4173;918;29.67358;0;0;0;0;98239;98239;0;0;0;0;0;6.2340198;-3.3405783;0.0;0;0;1;0;0;0.0;-1;0.0;0.0;13.144;1.667935426E9;78;0;2;0;0;0;2;0
1.667935424713E9;15979;667938.0649029281;-766;-25;543;15982;667938.062402928;-4628;-2301;271;29.67358;0;0;0;0;98239;98239;0;0;0;0;0;5.970804;-3.3801417;0.0;0;0;1;0;0;0.0;-1;0.0;0.0;13.144;1.667935426E9;78;0;2;0;0;0;2;0
1.667935424713E9;15980;667938.0744327201;-724;-56;537;15983;667938.07193272;-4497;-489;-577;29.67358;0;0;0;0;98239;98239;0;0;0;0;0;5.7388005;-3.4025965;0.0;0;0;1;0;0;0.0;-1;0.0;0.0;13.144;1.667935426E9;78;0;2;0;0;0;2;0
1.667935424713E9;15981;667938.083962459;-710;-30;539;15984;667938.081462459;-4226;1111;-796;29.67358;0;0;0;0;98237;98237;0;0;0;0;0;5.532793;-3.4134734;0.0;0;0;1;0;0;0.0;-1;0.0;0.0;13.144;1.667935426E9;78;0;2;0;0;0;2;0
1.667935424713E9;15982;667938.093492251;-787;-29;581;15985;667938.0909922511;-3587;2082;-2204;29.67358;0;0;0;0;98237;98237;0;0;0;0;0;5.3397264;-3.4087982;0.0;0;0;1;0;0;0.0;-1;0.0;0.0;13.144;1.667935426E9;78;0;2;0;0;0;2;0
1.667935424713E9;15983;667938.103022043;-743;-39;589;15986;667938.1005220431;-2021;629;-778;29.67358;0;0;0;0;98237;98237;0;0;0;0;0;5.1463194;-3.4246879;0.0;0;0;1;0;0;0.0;-1;0.0;0.0;13.144;1.667935426E9;78;0;2;0;0;0;2;0
1.667935424713E9;15984;667938.112551782;-791;-27;588;15987;667938.110051782;-874;-1872;87;29.67358;0;0;0;0;98237;98237;0;0;0;0;0;4.938486;-3.4590206;0.0;0;0;1;0;0;0.0;-1;0.0;0.0;13.144;1.667935426E9;78;0;2;0;0;0;2;0
1.667935424717E9;15985;667938.122081574;-787;-53;613;15988;667938.119581574;402;-1793;866;29.67358;0;0;0;0;98238;98238;0;0;0;0;0;4.7384353;-3.5016565;0.0;0;0;1;0;0;0.0;-1;0.0;0.0;13.144;1.667935426E9;78;0;2;0;0;0;2;0
1.667935424727E9;15986;667938.131611314;-799;0;618;15989;667938.1291113141;2169;-883;1084;29.67358;0;0;0;0;98238;98238;0;0;0;0;0;4.552262;-3.5485523;0.0;0;0;1;0;0;0.0;-1;0.0;0.0;13.144;1.667935426E9;78;0;2;0;0;0;2;0
1.667935424737E9;15987;667938.1411411051;-795;-21;553;15990;667938.138641105;1259;-2274;-1434;29.67358;0;0;0;0;98238;98238;0;0;0;0;0;4.3485518;-3.5779495;0.0;0;0;1;0;0;0.0;-1;0.0;0.0;13.144;1.667935426E9;78;0;2;0;0;0;2;0
1.667935424747E9;15988;667938.1506708971;-694;6;469;15991;667938.148170897;-2423;-2572;-3001;29.67358;0;0;0;0;98238;98238;0;0;0;0;0;4.1417265;-3.580651;0.0;0;0;1;0;0;0.0;-1;0.0;0.0;13.144;1.667935426E9;78;0;2;0;0;0;2;0
1.667935424754E9;15989;667938.160187355;-694;-1;429;15992;667938.1576873551;-5267;-1539;-4646;29.67358;0;0;0;0;98241;98241;0;0;0;0;0;3.9499948;-3.5553463;0.0;0;0;1;0;0;0.0;-1;0.0;0.0;13.144;1.667935426E9;78;0;2;0;0;0;2;0
1.667935424766E9;15990;667938.169730428;-626;-55;446;15993;667938.1672304281;-6413;682;-3473;29.67358;0;0;0;0;98241;98241;0;0;0;0;0;3.7972302;-3.5261395;0.0;0;0;1;0;0;0.0;-1;0.0;0.0;13.144;1.667935426E9;78;0;2;0;0;0;2;0
1.667935424775E9;15991;667938.179260168;-610;-25;579;15994;667938.176760168;-4287;551;-1356;29.67358;0;0;0;0;98241;98241;0;0;0;0;0;3.6682413;-3.524062;0.0;0;0;1;0;0;0.0;-1;0.0;0.0;13.144;1.667935426E9;78;0;2;0;0;0;2;0
1.667935424784E9;15992;667938.188776678;-786;-36;729;15995;667938.186276678;752;-1163;-1023;29.67358;0;0;0;0;98241;98241;0;0;0;0;0;3.543405;-3.5560179;0.0;0;0;1;0;0;0.0;-1;0.0;0.0;13.144;1.667935426E9;78;0;2;0;0;0;2;0
1.667935424792E9;15993;667938.1983197511;-817;-50;818;15996;667938.195819751;6361;-1977;2458;29.67358;0;0;0;0;98241;98241;0;0;0;0;0;3.4369936;-3.6447706;0.0;0;0;1;0;0;0.0;-1;0.0;0.0;13.144;1.667935426E9;78;0;2;0;0;0;2;0
1.667935424806E9;15994;667938.207849491;-949;-30;766;15997;667938.2053494911;8146;-4339;1924;29.67358;0;0;0;0;98243;98243;0;0;0;0;0;3.3110628;-3.7465444;0.0;0;0;1;0;0;0.0;-1;0.0;0.0;13.144;1.667935426E9;78;0;2;0;0;0;2;0
1.6679354248140001E9;15995;667938.217366001;-921;-79;607;15998;667938.214866001;3193;-6168;2528;29.67358;0;0;0;0;98243;98243;0;0;0;0;0;3.1612248;-3.833196;0.0;0;0;1;0;0;0.0;-1;0.0;0.0;13.144;1.667935426E9;78;0;2;0;0;0;2;0
1.667935424825E9;15996;667938.226909074;-815;-29;504;15999;667938.224409074;-4331;-4943;218;29.67358;0;0;0;0;98243;98243;0;0;0;0;0;3.0026855;-3.8578496;0.0;0;0;1;0;0;0.0;-1;0.0;0.0;13.144;1.667935426E9;78;0;2;0;0;0;2;0
1.667935424832E9;15997;667938.2364388141;-764;-28;463;16000;667938.233938814;-9948;-1767;-4261;29.67358;0;0;0;0;98243;98243;0;0;0;0;0;2.8520358;-3.80751;0.0;0;0;1;0;0;0.0;-1;0.0;0.0;13.144;1.667935426E9;78;0;2;0;0;0;2;0
1.667935424844E9;15998;667938.245968605;-657;-23;480;16001;667938.2434686051;-11024;944;-4637;29.67358;0;0;0;0;98239;98239;0;0;0;0;0;2.7285311;-3.7387438;0.0;0;0;1;0;0;0.0;-1;0.0;0.0;13.144;1.667935426E9;78;0;2;0;0;0;2;0
1.667935424854E9;15999;667938.255498397;-645;-40;533;16002;667938.252998397;-6632;1032;-5722;29.67358;0;0;0;0;98239;98239;0;0;0;0;0;2.616662;-3.684602;0.0;0;0;1;0;0;0.0;-1;0.0;0.0;13.144;1.667935426E9;78;0;2;0;0;0;2;0
1.667935424861E9;16000;667938.2650281361;-658;-79;597;16003;667938.262528136;1592;1688;-4401;29.67358;0;0;0;0;98239;98239;0;0;0;0;0;2.535641;-3.6799097;0.0;0;0;1;0;0;0.0;-1;0.0;0.0;13.144;1.667935426E9;78;0;2;0;0;0;2;0
1.6679354248730001E9;16001;667938.2745579281;-781;-32;663;16004;667938.272057928;10167;2554;-2301;29.67358;0;0;0;0;98239;98239;0;0;0;0;0;2.4887085;-3.7301707;0.0;0;0;1;0;0;0.0;-1;0.0;0.0;13.144;1.667935426E9;78;0;2;0;0;0;2;0
1.66793542488E9;16002;667938.284087668;-818;-72;612;16005;667938.281587668;12310;-8;-1146;29.67358;0;0;0;0;98243;98243;0;0;0;0;0;2.4281487;-3.8069198;0.0;0;0;1;0;0;0.0;-1;0.0;0.0;13.144;1.667935426E9;78;0;2;0;0;0;2;0
1.667935424894E9;16003;667938.293617459;-825;-7;557;16006;667938.2911174591;4891;-5048;-192;29.67358;0;0;0;0;98243;98243;0;0;0;0;0;2.3127193;-3.8679864;0.0;0;0;1;0;0;0.0;-1;0.0;0.0;13.144;1.667935426E9;78;0;2;0;0;0;2;0
1.667935424904E9;16004;667938.3031471991;-832;-27;558;16007;667938.300647199;-4602;-6754;-1741;29.67358;0;0;0;0;98243;98243;0;0;0;0;0;2.1618576;-3.8720531;0.0;0;0;1;0;0;0.0;-1;0.0;0.0;13.144;1.667935426E9;78;0;2;0;0;0;2;0
1.667935424909E9;16005;667938.312676991;-790;-65;628;16008;667938.310176991;-8819;-1478;-472;29.67358;0;0;0;0;98243;98243;0;0;0;0;0;2.0589082;-3.8419418;0.0;0;0;1;0;0;0.0;-1;0.0;0.0;13.144;1.667935426E9;78;0;2;0;0;0;2;0
1.667935424918E9;16006;667938.3222067821;-844;-49;762;16009;667938.319706782;-6089;4996;708;29.67358;0;0;0;0;98243;98243;0;0;0;0;0;2.0267255;-3.8096468;0.0;0;0;1;0;0;0.0;-1;0.0;0.0;13.144;1.667935426E9;78;0;2;0;0;0;2;0
1.66793542493E9;16007;667938.331723241;-863;-101;833;16010;667938.3292232411;-1286;8216;1636;29.67358;0;0;0;0;98243;98243;0;0;0;0;0;2.0370035;-3.7968197;0.0;0;0;1;0;0;0.0;-1;0.0;0.0;13.144;1.667935426E9;78;0;2;0;0;0;2;0
1.667935424938E9;16008;667938.341266314;-934;-78;858;16011;667938.3387663141;1907;6973;1601;29.67358;0;0;0;0;98243;98243;0;0;0;0;0;2.0415993;-3.8045697;0.0;0;0;1;0;0;0.0;-1;0.0;0.0;13.144;1.667935426E9;78;0;2;0;0;0;2;0
1.66793542495E9;16009;667938.350796105;-987;-91;747;16012;667938.348296105;953;988;-542;29.67358;0;0;0;0;98243;98243;0;0;0;0;0;1.982636;-3.8132932;0.0;0;0;1;0;0;0.0;-1;0.0;0.0;13.144;1.667935426E9;78;0;2;0;0;0;2;0
1.667935424955E9;16010;667938.3603258451;-855;-76;603;16013;667938.357825845;-3893;-6536;-1032;29.67358;0;0;0;0;98238;98238;0;0;0;0;0;1.8454454;-3.8203504;0.0;0;0;1;0;0;0.0;-1;0.0;0.0;13.144;1.667935426E9;78;0;2;0;0;0;2;0
1.66793542497E9;16011;667938.369855636;-831;-75;579;16014;667938.3673556361;-6851;-10657;-3482;29.67358;0;0;0;0;98238;98238;0;0;0;0;0;1.6600937;-3.8082285;0.0;0;0;1;0;0;0.0;-1;0.0;0.0;13.144;1.667935426E9;78;0;2;0;0;0;2;0
1.667935424977E9;16012;667938.379385428;-716;-121;585;16015;667938.3768854281;-4164;-8487;-3333;29.67358;0;0;0;0;98238;98238;0;0;0;0;0;1.5040356;-3.8021247;0.0;0;0;1;0;0;0.0;-1;0.0;0.0;13.144;1.667935426E9;78;0;2;0;0;0;2;0
1.667935424989E9;16013;667938.388915168;-710;-82;605;16016;667938.3864151681;1347;-5547;-3657;29.67358;0;0;0;0;98238;98238;0;0;0;0;0;1.3874936;-3.8106375;0.0;0;0;1;0;0;0.0;-1;0.0;0.0;13.144;1.667935426E9;78;0;2;0;0;0;2;0
1.667935424994E9;16014;667938.3984449591;-736;-123;594;16017;667938.395944959;4882;-3307;-4619;29.67358;0;0;0;0;98234;98234;0;0;0;0;0;1.2971066;-3.8210902;0.0;0;0;1;0;0;0.0;-1;0.0;0.0;13.144;1.667935426E9;78;0;2;0;0;0;2;0
1.667935425006E9;16015;667938.4079747511;-786;-72;644;16018;667938.405474751;5433;-34;-3447;29.67358;0;0;0;0;98234;98234;0;0;0;0;0;1.2425098;-3.8291452;0.0;0;0;1;0;0;0.0;-1;0.0;0.0;13.144;1.667935426E9;78;0;2;0;0;0;2;0
1.667935425014E9;16016;667938.417504491;-863;-100;705;16019;667938.415004491;5556;2747;-3044;29.67358;0;0;0;0;98234;98234;0;0;0;0;0;1.2151239;-3.8288982;0.0;0;0;1;0;0;0.0;-1;0.0;0.0;13.144;1.667935426E9;78;0;2;0;0;0;2;0
1.667935425027E9;16017;667938.427034282;-866;-92;697;16020;667938.4245342821;4829;5249;-1172;29.67358;0;0;0;0;98234;98234;0;0;0;0;0;1.214914;-3.8276715;0.0;0;0;1;0;0;0.0;-1;0.0;0.0;13.144;1.667935426E9;78;0;2;0;0;0;2;0
1.667935425032E9;16018;667938.4365640221;-838;-58;638;16021;667938.434064022;1496;5512;-778;29.67358;0;0;0;0;98234;98234;0;0;0;0;0;1.2111694;-3.809275;0.0;0;0;1;0;0;0.0;-1;0.0;0.0;13.144;1.667935426E9;78;0;2;0;0;0;2;0
1.6679354250440001E9;16019;667938.4460938141;-745;-88;577;16022;667938.443593814;-4952;5144;-1251;29.67358;0;0;0;0;98229;98229;0;0;0;0;0;1.1893116;-3.7534676;0.0;0;0;1;0;0;0.0;-1;0.0;0.0;13.144;1.667935426E9;78;0;2;0;0;0;2;0
1.667935425053E9;16020;667938.455623605;-730;-35;650;16023;667938.453123605;-9782;5188;-1776;29.67358;0;0;0;0;98229;98229;0;0;0;0;0;1.1565937;-3.6678061;0.0;0;0;1;0;0;0.0;-1;0.0;0.0;13.144;1.667935426E9;78;0;2;0;0;0;2;0
1.667935425062E9;16021;667938.465153345;-749;-100;735;16024;667938.4626533451;-9064;5057;-1916;29.67358;0;0;0;0;98229;98229;0;0;0;0;0;1.1239941;-3.5862565;0.0;0;0;1;0;0;0.0;-1;0.0;0.0;13.144;1.667935426E9;78;0;2;0;0;0;2;0
1.66793542507E9;16022;667938.4746698551;-771;-80;790;16025;667938.472169855;-4252;5564;507;29.67358;0;0;0;0;98229;98229;0;0;0;0;0;1.1135728;-3.5470238;0.0;0;0;1;0;0;0.0;-1;0.0;0.0;13.144;1.667935426E9;78;0;2;0;0;0;2;0
1.66793542508E9;16023;667938.4842128761;-857;-110;796;16026;667938.481712876;796;3141;1469;29.67358;0;0;0;0;98234;98234;0;0;0;0;0;1.0939658;-3.5511384;0.0;0;0;1;0;0;0.0;-1;0.0;0.0;13.144;1.667935426E9;78;0;2;0;0;0;2;0
1.6679354250900002E9;16024;667938.4937426681;-854;-121;723;16027;667938.491242668;2668;-1023;2283;29.67358;0;0;0;0;98234;98234;0;0;0;0;0;1.0428438;-3.5861967;0.0;0;0;1;0;0;0.0;-1;0.0;0.0;13.144;1.667935426E9;78;0;2;0;0;0;2;0
1.667935425101E9;16025;667938.503272459;-851;-73;670;16028;667938.5007724591;1128;-5407;1102;29.67358;0;0;0;0;98234;98234;0;0;0;0;0;0.9456097;-3.619582;0.0;0;0;1;0;0;0.0;-1;0.0;0.0;13.144;1.667935426E9;78;0;2;0;0;0;2;0
1.667935425111E9;16026;667938.512802199;-787;-97;589;16029;667938.510302199;-2038;-8058;-1846;29.67358;0;0;0;0;98234;98234;0;0;0;0;0;0.80984235;-3.6231477;0.0;0;0;1;0;0;0.0;-1;0.0;0.0;13.144;1.667935426E9;78;0;2;0;0;0;2;0
1.667935425117E9;16027;667938.522331991;-738;-27;587;16030;667938.519831991;-3526;-7997;-2703;29.67358;0;0;0;0;98222;98222;0;0;0;0;0;0.6709291;-3.611405;0.0;0;0;1;0;0;0.0;-1;0.0;0.0;13.144;1.667935426E9;78;0;2;0;0;0;2;0
1.667935425128E9;16028;667938.5318617821;-722;-68;607;16031;667938.529361782;-1898;-7787;-3254;29.67358;0;0;0;0;98222;98222;0;0;0;0;0;0.5374224;-3.603322;0.0;0;0;1;0;0;0.0;-1;0.0;0.0;13.144;1.667935426E9;78;0;2;0;0;0;2;0
1.667935425141E9;16029;667938.541391522;-686;-63;653;16032;667938.5388915221;2266;-5398;-1548;29.67358;0;0;0;0;98222;98222;0;0;0;0;0;0.44123837;-3.6208506;0.0;0;0;1;0;0;0.0;-1;0.0;0.0;13.144;1.667935426E9;78;0;2;0;0;0;2;0
1.6679354251460001E9;16030;667938.550921314;-791;-68;725;16033;667938.548421314;6798;-3718;-192;29.67358;0;0;0;0;98222;98222;0;0;0;0;0;0.37482205;-3.6658745;0.0;0;0;1;0;0;0.0;-1;0.0;0.0;13.144;1.667935426E9;78;0;2;0;0;0;2;0
1.667935425214E9;16031;667938.5604510531;-790;-109;698;16034;667938.557951053;8067;-2948;1706;29.67358;0;0;0;0;98225;98225;0;0;0;0;0;0.32471135;-3.727362;0.0;0;0;1;0;0;0.0;-1;0.0;0.0;13.144;1.667935426E9;78;0;2;0;0;0;2;0
1.667935425214E9;16032;667938.5699808451;-821;-65;664;16035;667938.567480845;4523;-3727;2318;29.67358;0;0;0;0;98225;98225;0;0;0;0;0;0.26286447;-3.7751224;0.0;0;0;1;0;0;0.0;-1;0.0;0.0;13.144;1.667935426E9;78;0;2;0;0;0;2;0
1.667935425214E9;16033;667938.579510636;-803;-103;600;16036;667938.577010636;-1356;-4304;866;29.67358;0;0;0;0;98225;98225;0;0;0;0;0;0.17992513;-3.7808888;0.0;0;0;1;0;0;0.0;-1;0.0;0.0;13.144;1.667935426E9;78;0;2;0;0;0;2;0
1.667935425214E9;16034;667938.589040376;-739;-55;575;16037;667938.5865403761;-5626;-2511;332;29.67358;0;0;0;0;98225;98225;0;0;0;0;0;0.10392159;-3.751841;0.0;0;0;1;0;0;0.0;-1;0.0;0.0;13.144;1.667935426E9;78;0;2;0;0;0;2;0
1.6679354252150002E9;16035;667938.598570168;-734;-66;576;16038;667938.5960701681;-6054;-1329;-1434;29.67358;0;0;0;0;98220;98220;0;0;0;0;0;0.032929726;-3.7033389;0.0;0;0;1;0;0;0.0;-1;0.0;0.0;13.144;1.667935426E9;78;0;2;0;0;0;2;0
1.6679354252150002E9;16036;667938.6080999591;-688;-62;574;16039;667938.605599959;-3438;0;-1697;29.67358;0;0;0;0;98220;98220;0;0;0;0;0;-0.020855583;-3.6628914;0.0;0;0;1;0;0;0.0;-1;0.0;0.0;13.144;1.667935426E9;78;0;2;0;0;0;2;0
1.6679354252150002E9;16037;667938.6176296991;-763;-43;603;16040;667938.615129699;822;17;-2292;29.67358;0;0;0;0;98220;98220;0;0;0;0;0;-0.067466155;-3.6421897;0.0;0;0;1;0;0;0.0;-1;0.0;0.0;13.144;1.667935426E9;78;0;2;0;0;0;2;0
1.667935425223E9;16038;667938.6271594911;-777;-107;611;16041;667938.624659491;4016;-524;-1137;29.67358;0;0;0;0;98220;98220;0;0;0;0;0;-0.10849663;-3.6496387;0.0;0;0;1;0;0;0.0;-1;0.0;0.0;13.144;1.667935426E9;78;0;2;0;0;0;2;0
1.667935425232E9;16039;667938.63668923;-841;-49;683;16042;667938.63418923;6431;-1426;918;29.67358;0;0;0;0;98220;98220;0;0;0;0;0;-0.14585668;-3.688248;0.0;0;0;1;0;0;0.0;-1;0.0;0.0;13.144;1.667935426E9;78;0;2;0;0;0;2;0
1.667935425241E9;16040;667938.646219022;-868;-76;683;16043;667938.643719022;7866;-4199;1504;29.67358;0;0;0;0;98225;98225;0;0;0;0;0;-0.20322923;-3.7486296;0.0;0;0;1;0;0;0.0;-1;0.0;0.0;13.144;1.667935426E9;78;0;2;0;0;0;2;0
1.667935425253E9;16041;667938.655748814;-831;-45;599;16044;667938.653248814;5319;-6089;1426;29.67358;0;0;0;0;98225;98225;0;0;0;0;0;-0.28225994;-3.8001106;0.0;0;0;1;0;0;0.0;-1;0.0;0.0;13.144;1.667935426E9;78;0;2;0;0;0;2;0
1.667935425261E9;16042;667938.665278553;-774;-22;496;16045;667938.6627785531;-1189;-8338;472;29.67358;0;0;0;0;98225;98225;0;0;0;0;0;-0.39652136;-3.8157082;0.0;0;0;1;0;0;0.0;-1;0.0;0.0;13.144;1.667935426E9;78;0;2;0;0;0;2;0
1.66793542527E9;16043;667938.674795064;-580;-96;408;16046;667938.6722950641;-8495;-9414;2169;29.67358;0;0;0;0;98225;98225;0;0;0;0;0;-0.52779865;-3.8057983;0.0;0;0;1;0;0;0.0;-1;0.0;0.0;13.144;1.667935426E9;78;0;2;0;0;0;2;0
1.667935425279E9;16044;667938.684338136;-482;-35;460;16047;667938.681838136;-10910;-7612;2073;29.67358;0;0;0;0;98223;98223;0;0;0;0;0;-0.6457168;-3.7744868;0.0;0;0;1;0;0;0.0;-1;0.0;0.0;13.144;1.667935426E9;78;0;2;0;0;0;2;0
1.66793542529E9;16045;667938.6938678761;-544;-53;588;16048;667938.691367876;-7393;-2309;174;29.67358;0;0;0;0;98223;98223;0;0;0;0;0;-0.71278083;-3.7296515;0.0;0;0;1;0;0;0.0;-1;0.0;0.0;13.144;1.667935426E9;78;0;2;0;0;0;2;0
1.6679354253E9;16046;667938.703384386;-826;-27;854;16049;667938.7008843861;1426;5372;1889;29.67358;0;0;0;0;98223;98223;0;0;0;0;0;-0.68609536;-3.718465;0.0;0;0;1;0;0;0.0;-1;0.0;0.0;13.144;1.667935426E9;78;0;2;0;0;0;2;0
1.667935425308E9;16047;667938.712927459;-984;-101;954;16050;667938.7104274591;13815;8478;5687;29.67358;0;0;0;0;98223;98223;0;0;0;0;0;-0.5949206;-3.79277;0.0;0;0;1;0;0;0.0;-1;0.0;0.0;13.144;1.667935426E9;78;0;2;0;0;0;2;0
1.6679354253170002E9;16048;667938.722457199;-1066;-120;752;16051;667938.7199571991;17945;5433;7279;29.67358;0;0;0;0;98224;98224;0;0;0;0;0;-0.51947176;-3.911804;0.0;0;0;1;0;0;0.0;-1;0.0;0.0;13.144;1.667935426E9;78;0;2;0;0;0;2;0
1.667935425329E9;16049;667938.7319737091;-1008;-76;503;16052;667938.729473709;8837;-1898;4374;29.67358;0;0;0;0;98224;98224;0;0;0;0;0;-0.539348;-3.9842727;0.0;0;0;1;0;0;0.0;-1;0.0;0.0;13.144;1.667935426E9;78;0;2;0;0;0;2;0
1.6679354253400002E9;16050;667938.74151673;-770;-97;338;16053;667938.73901673;-8793;-5582;-2056;29.67358;0;0;0;0;98224;98224;0;0;0;0;0;-0.64871055;-3.9240177;0.0;0;0;1;0;0;0.0;-1;0.0;0.0;13.144;1.667935426E9;78;0;2;0;0;0;2;0
1.6679354253500001E9;16051;667938.751046522;-629;-22;405;16054;667938.748546522;-21130;-6186;-2581;29.67358;0;0;0;0;98224;98224;0;0;0;0;0;-0.78833556;-3.793067;0.0;0;0;1;0;0;0.0;-1;0.0;0.0;13.144;1.667935426E9;78;0;2;0;0;0;2;0
1.667935425355E9;16052;667938.760563032;-512;-48;526;16055;667938.7580630321;-21323;-10499;1373;29.67358;0;0;0;0;98228;98228;0;0;0;0;0;-0.95220506;-3.7068455;0.0;0;0;1;0;0;0.0;-1;0.0;0.0;13.144;1.667935426E9;78;0;2;0;0;0;2;0
1.6679354253700001E9;16053;667938.7701060531;-469;-15;679;16056;667938.767606053;-10315;-13448;3998;29.67358;0;0;0;0;98228;98228;0;0;0;0;0;-1.1097795;-3.7138476;0.0;0;0;1;0;0;0.0;-1;0.0;0.0;13.144;1.667935426E9;78;0;2;0;0;0;2;0
1.667935425377E9;16054;667938.779635845;-610;-33;744;16057;667938.777135845;7043;-9624;2161;29.67358;0;0;0;0;98228;98228;0;0;0;0;0;-1.2019296;-3.7924173;0.0;0;0;1;0;0;0.0;-1;0.0;0.0;13.144;1.667935426E9;78;0;2;0;0;0;2;0
1.667935425387E9;16055;667938.789165584;-759;-110;691;16058;667938.7866655841;17061;-481;2957;29.67358;0;0;0;0;98228;98228;0;0;0;0;0;-1.1872675;-3.8984315;0.0;0;0;1;0;0;0.0;-1;0.0;0.0;13.144;1.667935426E9;78;0;2;0;0;0;2;0
1.667935425398E9;16056;667938.798695376;-874;-126;695;16059;667938.7961953761;17718;7524;3202;29.67358;0;0;0;0;98228;98228;0;0;0;0;0;-1.098007;-3.9780152;0.0;0;0;1;0;0;0.0;-1;0.0;0.0;13.144;1.667935426E9;78;0;2;0;0;0;2;0
1.6679354254060001E9;16057;667938.808225168;-990;-169;700;16060;667938.8057251681;11689;8889;2511;29.67358;0;0;0;0;98223;98223;0;0;0;0;0;-1.0121094;-4.0114985;0.0;0;0;1;0;0;0.0;-1;0.0;0.0;13.144;1.667935426E9;78;0;2;0;0;0;2;0
1.6679354254160001E9;16058;667938.8177416781;-930;-89;681;16061;667938.815241678;2353;2799;3727;29.67358;0;0;0;0;98223;98223;0;0;0;0;0;-0.9979323;-4.022422;0.0;0;0;1;0;0;0.0;-1;0.0;0.0;13.144;1.667935426E9;78;0;2;0;0;0;2;0
1.667935425424E9;16059;667938.8272846991;-795;-35;573;16062;667938.824784699;-8784;-7183;2012;29.67358;0;0;0;0;98223;98223;0;0;0;0;0;-1.1028374;-3.9949374;0.0;0;0;1;0;0;0.0;-1;0.0;0.0;13.144;1.667935426E9;78;0;2;0;0;0;2;0
1.667935425432E9;16060;667938.8368144911;-647;26;513;16063;667938.834314491;-17044;-14664;2624;29.67358;0;0;0;0;98223;98223;0;0;0;0;0;-1.2889183;-3.952804;0.0;0;0;1;0;0;0.0;-1;0.0;0.0;13.144;1.667935426E9;78;0;2;0;0;0;2;0
1.667935425443E9;16061;667938.846330949;-579;5;549;16064;667938.843830949;-15408;-14375;183;29.67358;0;0;0;0;98224;98224;0;0;0;0;0;-1.4741464;-3.9018345;0.0;0;0;1;0;0;0.0;-1;0.0;0.0;13.144;1.667935426E9;78;0;2;0;0;0;2;0
1.667935425455E9;16062;667938.855874022;-656;-42;670;16065;667938.8533740221;-3849;-1391;-2108;29.67358;0;0;0;0;98224;98224;0;0;0;0;0;-1.5228193;-3.85301;0.0;0;0;1;0;0;0.0;-1;0.0;0.0;13.144;1.667935426E9;78;0;2;0;0;0;2;0
1.667935425464E9;16063;667938.865403814;-793;-94;794;16066;667938.8629038141;12870;13002;-866;29.67358;0;0;0;0;98224;98224;0;0;0;0;0;-1.4026916;-3.8562233;0.0;0;0;1;0;0;0.0;-1;0.0;0.0;13.144;1.667935426E9;78;0;2;0;0;0;2;0
1.667935425473E9;16064;667938.874933553;-867;-189;710;16067;667938.872433553;20964;11777;-516;29.67358;0;0;0;0;98224;98224;0;0;0;0;0;-1.2783351;-3.9129825;0.0;0;0;1;0;0;0.0;-1;0.0;0.0;13.144;1.667935426E9;78;0;2;0;0;0;2;0
1.66793542548E9;16065;667938.884463345;-830;-110;514;16068;667938.881963345;13177;-3622;-979;29.67358;0;0;0;0;98222;98222;0;0;0;0;0;-1.3128927;-3.9784613;0.0;0;0;1;0;0;0.0;-1;0.0;0.0;13.144;1.667935426E9;78;0;2;0;0;0;2;0
1.667935425493E9;16066;667938.893993136;-747;-29;426;16069;667938.8914931361;-4742;-18995;-892;29.67358;0;0;0;0;98222;98222;0;0;0;0;0;-1.5225564;-3.9982746;0.0;0;0;1;0;0;0.0;-1;0.0;0.0;13.144;1.667935426E9;78;0;2;0;0;0;2;0
1.667935425503E9;16067;667938.9035095951;-578;0;575;16070;667938.901009595;-15592;-20631;2878;29.67358;0;0;0;0;98222;98222;0;0;0;0;0;-1.7539085;-3.9873116;0.0;0;0;1;0;0;0.0;-1;0.0;0.0;13.144;1.667935426E9;78;0;2;0;0;0;2;0
1.667935425509E9;16068;667938.9130526681;-686;-24;846;16071;667938.910552668;-7227;-7454;3289;29.67358;0;0;0;0;98222;98222;0;0;0;0;0;-1.8439736;-3.977843;0.0;0;0;1;0;0;0.0;-1;0.0;0.0;13.144;1.667935426E9;78;0;2;0;0;0;2;0
1.667935425517E9;16069;667938.922582407;-754;-57;858;16072;667938.9200824071;9650;5547;3709;29.67358;0;0;0;0;98233;98233;0;0;0;0;0;-1.779341;-4.0209856;0.0;0;0;1;0;0;0.0;-1;0.0;0.0;13.144;1.667935426E9;78;0;2;0;0;0;2;0
1.667935425532E9;16070;667938.932112199;-836;-29;695;16073;667938.9296121991;13955;8898;1688;29.67358;0;0;0;0;98233;98233;0;0;0;0;0;-1.683153;-4.061865;0.0;0;0;1;0;0;0.0;-1;0.0;0.0;13.144;1.667935426E9;78;0;2;0;0;0;2;0
1.66793542554E9;16071;667938.941641991;-897;-103;604;16074;667938.9391419911;2843;5381;-1679;29.67358;0;0;0;0;98233;98233;0;0;0;0;0;-1.6537843;-4.0270844;0.0;0;0;1;0;0;0.0;-1;0.0;0.0;13.144;1.667935426E9;78;0;2;0;0;0;2;0
1.667935425549E9;16072;667938.9511717301;-877;-86;681;16075;667938.94867173;-6632;1242;-1312;29.67358;0;0;0;0;98233;98233;0;0;0;0;0;-1.6806504;-3.9559367;0.0;0;0;1;0;0;0.0;-1;0.0;0.0;13.144;1.667935426E9;78;0;2;0;0;0;2;0
1.667935425555E9;16073;667938.9607015221;-805;-115;687;16076;667938.958201522;-6177;-4392;201;29.67358;0;0;0;0;98223;98223;0;0;0;0;0;-1.7526983;-3.9203353;0.0;0;0;1;0;0;0.0;-1;0.0;0.0;13.144;1.667935426E9;78;0;2;0;0;0;2;0
1.667935425568E9;16074;667938.9702313141;-706;-64;586;16077;667938.967731314;-3176;-8417;1504;29.67358;0;0;0;0;98223;98223;0;0;0;0;0;-1.8502355;-3.9269967;0.0;0;0;1;0;0;0.0;-1;0.0;0.0;13.144;1.667935426E9;78;0;2;0;0;0;2;0
1.667935425576E9;16075;667938.979761053;-690;-60;539;16078;667938.977261053;-2616;-7437;524;29.67358;0;0;0;0;98223;98223;0;0;0;0;0;-1.9396726;-3.9262745;0.0;0;0;1;0;0;0.0;-1;0.0;0.0;13.144;1.667935426E9;78;0;2;0;0;0;2;0
1.667935425589E9;16076;667938.9892974071;-671;-80;615;16079;667938.986797407;-2012;-1382;8;29.67358;0;0;0;0;98223;98223;0;0;0;0;0;-1.9733535;-3.902722;0.0;0;0;1;0;0;0.0;-1;0.0;0.0;13.144;1.667935426E9;78;0;2;0;0;0;2;0
1.667935425594E9;16077;667938.9988206361;-782;-63;761;16080;667938.996320636;2983;5031;-341;29.67358;0;0;0;0;98223;98223;0;0;0;0;0;-1.9395121;-3.8822577;0.0;0;0;1;0;0;0.0;-1;0.0;0.0;13.144;1.667935426E9;78;0;2;0;0;0;2;0
1.667935425605E9;16078;667939.008350376;-818;-103;755;16081;667939.0058503761;7026;5949;34;29.67358;0;0;0;0;98227;98227;0;0;0;0;0;-1.8887013;-3.8849666;0.0;0;0;1;0;0;0.0;-1;0.0;0.0;13.144;1.667935426E9;78;0;2;0;0;0;2;0
1.667935425614E9;16079;667939.017880168;-773;-41;643;16082;667939.015380168;3937;306;743;29.67358;0;0;0;0;98227;98227;0;0;0;0;0;-1.8940463;-3.8958044;0.0;0;0;1;0;0;0.0;-1;0.0;0.0;13.144;1.667935426E9;78;0;2;0;0;0;2;0
1.6679354256230001E9;16080;667939.0274099071;-730;-80;549;16083;667939.024909907;-3683;-5634;-822;29.67358;0;0;0;0;98227;98227;0;0;0;0;0;-1.973861;-3.8734467;0.0;0;0;1;0;0;0.0;-1;0.0;0.0;13.144;1.667935426E9;78;0;2;0;0;0;2;0
1.667935425632E9;16081;667939.0369396991;-665;-50;519;16084;667939.034439699;-7384;-3561;-1426;29.67358;0;0;0;0;98227;98227;0;0;0;0;0;-2.0432107;-3.8177435;0.0;0;0;1;0;0;0.0;-1;0.0;0.0;13.144;1.667935426E9;78;0;2;0;0;0;2;0
1.667935425641E9;16082;667939.0464694911;-699;-69;546;16085;667939.043969491;-6002;2633;-1732;29.67358;0;0;0;0;98223;98223;0;0;0;0;0;-2.0535908;-3.7455115;0.0;0;0;1;0;0;0.0;-1;0.0;0.0;13.144;1.667935426E9;78;0;2;0;0;0;2;0
1.66793542571E9;16083;667939.05599923;-715;-94;655;16086;667939.0534992301;-2493;8557;-52;29.67358;0;0;0;0;98223;98223;0;0;0;0;0;-1.9976172;-3.684376;0.0;0;0;1;0;0;0.0;-1;0.0;0.0;13.144;1.667935426E9;78;0;2;0;0;0;2;0
1.66793542571E9;16084;667939.065529022;-833;-70;836;16087;667939.0630290221;4436;11295;1461;29.67358;0;0;0;0;98223;98223;0;0;0;0;0;-1.8990691;-3.6650612;0.0;0;0;1;0;0;0.0;-1;0.0;0.0;13.144;1.667935426E9;78;0;2;0;0;0;2;0
1.66793542571E9;16085;667939.0750455321;-962;-109;891;16088;667939.072545532;10132;8399;1802;29.67358;0;0;0;0;98223;98223;0;0;0;0;0;-1.81611;-3.6926484;0.0;0;0;1;0;0;0.0;-1;0.0;0.0;13.144;1.667935426E9;78;0;2;0;0;0;2;0
1.66793542571E9;16086;667939.084588553;-1039;-55;802;16089;667939.082088553;9178;953;2467;29.67358;0;0;0;0;98230;98230;0;0;0;0;0;-1.8019304;-3.7469795;0.0;0;0;1;0;0;0.0;-1;0.0;0.0;13.144;1.667935426E9;78;0;2;0;0;0;2;0
1.66793542571E9;16087;667939.0941183451;-947;-94;603;16090;667939.091618345;358;-7008;411;29.67358;0;0;0;0;98230;98230;0;0;0;0;0;-1.8846695;-3.7647562;0.0;0;0;1;0;0;0.0;-1;0.0;0.0;13.144;1.667935426E9;78;0;2;0;0;0;2;0
1.66793542571E9;16088;667939.1036348031;-771;-57;483;16091;667939.101134803;-9405;-10455;-1688;29.67358;0;0;0;0;98230;98230;0;0;0;0;0;-2.023957;-3.723569;0.0;0;0;1;0;0;0.0;-1;0.0;0.0;13.144;1.667935426E9;78;0;2;0;0;0;2;0
1.66793542571E9;16089;667939.113177876;-671;-81;465;16092;667939.110677876;-12739;-9843;-2554;29.67358;0;0;0;0;98230;98230;0;0;0;0;0;-2.1651988;-3.6549184;0.0;0;0;1;0;0;0.0;-1;0.0;0.0;13.144;1.667935426E9;78;0;2;0;0;0;2;0
1.667935425717E9;16090;667939.122707668;-569;-111;509;16093;667939.120207668;-8802;-4331;-1364;38.295174;0;0;0;0;98221;98221;0;0;0;0;0;-2.2426705;-3.5977597;0.0;0;0;1;0;0;0.0;-1;0.0;0.0;11.475;1.667935427E9;78;0;2;0;0;0;2;0
1.667935425728E9;16091;667939.132224126;-596;-50;607;16094;667939.1297241261;446;2659;-559;38.295174;0;0;0;0;98221;98221;0;0;0;0;0;-2.2347333;-3.5752141;0.0;0;0;1;0;0;0.0;-1;0.0;0.0;11.475;1.667935427E9;78;0;2;0;0;0;2;0
1.667935425738E9;16092;667939.141767199;-680;-95;656;16095;667939.1392671991;7516;6579;384;38.295174;0;0;0;0;98221;98221;0;0;0;0;0;-2.174414;-3.5865269;0.0;0;0;1;0;0;0.0;-1;0.0;0.0;11.475;1.667935427E9;78;0;2;0;0;0;2;0
1.667935425747E9;16093;667939.151296991;-780;-56;736;16096;667939.1487969911;9572;7139;2012;38.295174;0;0;0;0;98221;98221;0;0;0;0;0;-2.100597;-3.6190145;0.0;0;0;1;0;0;0.0;-1;0.0;0.0;11.475;1.667935427E9;78;0;2;0;0;0;2;0
1.667935425756E9;16094;667939.1608134491;-877;-108;780;16097;667939.158313449;7813;4427;2152;38.295174;0;0;0;0;98227;98227;0;0;0;0;0;-2.0555685;-3.6518772;0.0;0;0;1;0;0;0.0;-1;0.0;0.0;11.475;1.667935427E9;78;0;2;0;0;0;2;0
1.6679354257680001E9;16095;667939.1703565221;-909;-79;726;16098;667939.167856522;3718;1067;2773;38.295174;0;0;0;0;98227;98227;0;0;0;0;0;-2.0479002;-3.6772509;0.0;0;0;1;0;0;0.0;-1;0.0;0.0;11.475;1.667935427E9;78;0;2;0;0;0;2;0
1.667935425775E9;16096;667939.179886261;-845;-55;585;16099;667939.177386261;-2852;-2712;918;38.295174;0;0;0;0;98227;98227;0;0;0;0;0;-2.0938506;-3.6650434;0.0;0;0;1;0;0;0.0;-1;0.0;0.0;11.475;1.667935427E9;78;0;2;0;0;0;2;0
1.667935425786E9;16097;667939.189402772;-725;-58;464;16100;667939.186902772;-11287;-3158;-1951;38.295174;0;0;0;0;98227;98227;0;0;0;0;0;-2.1692762;-3.585135;0.0;0;0;1;0;0;0.0;-1;0.0;0.0;11.475;1.667935427E9;78;0;2;0;0;0;2;0
1.6679354257940001E9;16098;667939.198945845;-664;-62;487;16101;667939.1964458451;-14778;-43;-3333;38.295174;0;0;0;0;98224;98224;0;0;0;0;0;-2.2266083;-3.464337;0.0;0;0;1;0;0;0.0;-1;0.0;0.0;11.475;1.667935427E9;78;0;2;0;0;0;2;0
1.667935425805E9;16099;667939.208475584;-645;-127;589;16102;667939.205975584;-9983;4637;-3246;38.295174;0;0;0;0;98224;98224;0;0;0;0;0;-2.2307997;-3.3563871;0.0;0;0;1;0;0;0.0;-1;0.0;0.0;11.475;1.667935427E9;78;0;2;0;0;0;2;0
1.667935425815E9;16100;667939.218005376;-714;-91;706;16103;667939.215505376;1837;7743;-367;38.295174;0;0;0;0;98224;98224;0;0;0;0;0;-2.1743495;-3.3279788;0.0;0;0;1;0;0;0.0;-1;0.0;0.0;11.475;1.667935427E9;78;0;2;0;0;0;2;0
1.667935425823E9;16101;667939.2275351681;-789;-127;719;16104;667939.225035168;10639;5337;2029;38.295174;0;0;0;0;98224;98224;0;0;0;0;0;-2.1158195;-3.3775184;0.0;0;0;1;0;0;0.0;-1;0.0;0.0;11.475;1.667935427E9;78;0;2;0;0;0;2;0
1.667935425833E9;16102;667939.2370649071;-838;-76;710;16105;667939.234564907;9965;122;3666;38.295174;0;0;0;0;98224;98224;0;0;0;0;0;-2.1015017;-3.4533887;0.0;0;0;1;0;0;0.0;-1;0.0;0.0;11.475;1.667935427E9;78;0;2;0;0;0;2;0
1.667935425843E9;16103;667939.2465946991;-889;-84;709;16106;667939.244094699;3753;-5398;3158;38.295174;0;0;0;0;98223;98223;0;0;0;0;0;-2.1513631;-3.5089364;0.0;0;0;1;0;0;0.0;-1;0.0;0.0;11.475;1.667935427E9;78;0;2;0;0;0;2;0
1.667935425853E9;16104;667939.256124491;-822;-84;679;16107;667939.253624491;-2406;-7437;2283;38.295174;0;0;0;0;98223;98223;0;0;0;0;0;-2.234088;-3.5290732;0.0;0;0;1;0;0;0.0;-1;0.0;0.0;11.475;1.667935427E9;78;0;2;0;0;0;2;0
1.667935425863E9;16105;667939.26565423;-773;-61;646;16108;667939.2631542301;-4961;-6124;638;38.295174;0;0;0;0;98223;98223;0;0;0;0;0;-2.3142078;-3.5174413;0.0;0;0;1;0;0;0.0;-1;0.0;0.0;11.475;1.667935427E9;78;0;2;0;0;0;2;0
1.667935425872E9;16106;667939.275184022;-699;-91;587;16109;667939.2726840221;-5398;-3832;-1268;38.295174;0;0;0;0;98223;98223;0;0;0;0;0;-2.3795433;-3.481475;0.0;0;0;1;0;0;0.0;-1;0.0;0.0;11.475;1.667935427E9;78;0;2;0;0;0;2;0
1.66793542588E9;16107;667939.284713814;-667;-33;558;16110;667939.2822138141;-3709;-1951;-2108;38.295174;0;0;0;0;98222;98222;0;0;0;0;0;-2.4264042;-3.4430602;0.0;0;0;1;0;0;0.0;-1;0.0;0.0;11.475;1.667935427E9;78;0;2;0;0;0;2;0
1.667935425891E9;16108;667939.2942435531;-668;-94;548;16111;667939.291743553;-1653;-1102;-3149;38.295174;0;0;0;0;98222;98222;0;0;0;0;0;-2.4643998;-3.4069297;0.0;0;0;1;0;0;0.0;-1;0.0;0.0;11.475;1.667935427E9;78;0;2;0;0;0;2;0
1.667935425904E9;16109;667939.3037733451;-701;-93;600;16112;667939.301273345;1592;857;-1662;38.295174;0;0;0;0;98222;98222;0;0;0;0;0;-2.472984;-3.3934913;0.0;0;0;1;0;0;0.0;-1;0.0;0.0;11.475;1.667935427E9;78;0;2;0;0;0;2;0
1.667935425909E9;16110;667939.313303084;-762;-125;652;16113;667939.310803084;5564;1356;-87;38.295174;0;0;0;0;98222;98222;0;0;0;0;0;-2.4641583;-3.4128325;0.0;0;0;1;0;0;0.0;-1;0.0;0.0;11.475;1.667935427E9;78;0;2;0;0;0;2;0
1.6679354259190001E9;16111;667939.322832876;-781;-97;649;16114;667939.320332876;6492;104;1189;38.295174;0;0;0;0;98228;98228;0;0;0;0;0;-2.4609451;-3.450952;0.0;0;0;1;0;0;0.0;-1;0.0;0.0;11.475;1.667935427E9;78;0;2;0;0;0;2;0
1.667935425931E9;16112;667939.332362668;-793;-61;620;16115;667939.3298626681;2668;-1434;953;38.295174;0;0;0;0;98228;98228;0;0;0;0;0;-2.4800138;-3.4699955;0.0;0;0;1;0;0;0.0;-1;0.0;0.0;11.475;1.667935427E9;78;0;2;0;0;0;2;0
1.6679354259390001E9;16113;667939.341892407;-739;-69;602;16116;667939.3393924071;-4068;-1601;-78;38.295174;0;0;0;0;98228;98228;0;0;0;0;0;-2.5168767;-3.4422886;0.0;0;0;1;0;0;0.0;-1;0.0;0.0;11.475;1.667935427E9;78;0;2;0;0;0;2;0
1.667935425951E9;16114;667939.351422199;-749;-35;656;16117;667939.348922199;-6781;1242;-402;38.295174;0;0;0;0;98228;98228;0;0;0;0;0;-2.5337212;-3.3858762;0.0;0;0;1;0;0;0.0;-1;0.0;0.0;11.475;1.667935427E9;78;0;2;0;0;0;2;0
1.667935425956E9;16115;667939.360951991;-783;-96;713;16118;667939.358451991;-4313;4864;-122;38.295174;0;0;0;0;98227;98227;0;0;0;0;0;-2.511703;-3.3331928;0.0;0;0;1;0;0;0.0;-1;0.0;0.0;11.475;1.667935427E9;78;0;2;0;0;0;2;0
1.66793542597E9;16116;667939.3704817301;-800;-89;739;16119;667939.36798173;-69;6623;1303;38.295174;0;0;0;0;98227;98227;0;0;0;0;0;-2.4611688;-3.3096926;0.0;0;0;1;0;0;0.0;-1;0.0;0.0;11.475;1.667935427E9;78;0;2;0;0;0;2;0
1.667935425978E9;16117;667939.3800115221;-829;-131;716;16120;667939.377511522;1224;3219;1198;38.295174;0;0;0;0;98227;98227;0;0;0;0;0;-2.4402466;-3.306234;0.0;0;0;1;0;0;0.0;-1;0.0;0.0;11.475;1.667935427E9;78;0;2;0;0;0;2;0
1.667935425988E9;16118;667939.389541261;-806;-131;673;16121;667939.3870412611;-594;-1242;1277;38.295174;0;0;0;0;98227;98227;0;0;0;0;0;-2.4635673;-3.309346;0.0;0;0;1;0;0;0.0;-1;0.0;0.0;11.475;1.667935427E9;78;0;2;0;0;0;2;0
1.667935425996E9;16119;667939.399071053;-780;-103;644;16122;667939.3965710531;-2633;-4654;577;38.295174;0;0;0;0;98227;98227;0;0;0;0;0;-2.5239947;-3.3082588;0.0;0;0;1;0;0;0.0;-1;0.0;0.0;11.475;1.667935427E9;78;0;2;0;0;0;2;0
1.6679354260080001E9;16120;667939.408600845;-720;-106;603;16123;667939.4061008451;-3972;-5284;-761;38.295174;0;0;0;0;98224;98224;0;0;0;0;0;-2.5964704;-3.2922542;0.0;0;0;1;0;0;0.0;-1;0.0;0.0;11.475;1.667935427E9;78;0;2;0;0;0;2;0
1.667935426016E9;16121;667939.4181305841;-678;-81;594;16124;667939.415630584;-3779;-1881;-1408;38.295174;0;0;0;0;98224;98224;0;0;0;0;0;-2.6388953;-3.2602537;0.0;0;0;1;0;0;0.0;-1;0.0;0.0;11.475;1.667935427E9;78;0;2;0;0;0;2;0
1.667935426026E9;16122;667939.4276603761;-645;-115;610;16125;667939.425160376;-2449;1601;-1767;38.295174;0;0;0;0;98224;98224;0;0;0;0;0;-2.6478415;-3.2209604;0.0;0;0;1;0;0;0.0;-1;0.0;0.0;11.475;1.667935427E9;78;0;2;0;0;0;2;0
1.667935426034E9;16123;667939.4371901681;-654;-107;647;16126;667939.434690168;8;4602;-1347;38.295174;0;0;0;0;98224;98224;0;0;0;0;0;-2.6234572;-3.1883848;0.0;0;0;1;0;0;0.0;-1;0.0;0.0;11.475;1.667935427E9;78;0;2;0;0;0;2;0
1.667935426042E9;16124;667939.446719907;-705;-125;666;16127;667939.444219907;1784;5171;-1259;38.295174;0;0;0;0;98227;98227;0;0;0;0;0;-2.5907636;-3.165195;0.0;0;0;1;0;0;0.0;-1;0.0;0.0;11.475;1.667935427E9;78;0;2;0;0;0;2;0
1.6679354260540001E9;16125;667939.456249699;-702;-91;617;16128;667939.453749699;656;3211;-1259;38.295174;0;0;0;0;98227;98227;0;0;0;0;0;-2.5787609;-3.1428573;0.0;0;0;1;0;0;0.0;-1;0.0;0.0;11.475;1.667935427E9;78;0;2;0;0;0;2;0
1.667935426063E9;16126;667939.465779491;-713;-93;566;16129;667939.463279491;-3018;1601;-1916;38.295174;0;0;0;0;98227;98227;0;0;0;0;0;-2.5909994;-3.1003613;0.0;0;0;1;0;0;0.0;-1;0.0;0.0;11.475;1.667935427E9;78;0;2;0;0;0;2;0
1.667935426071E9;16127;667939.47530923;-692;-124;556;16130;667939.4728092301;-6151;3324;-1951;38.295174;0;0;0;0;98227;98227;0;0;0;0;0;-2.5936987;-3.0329335;0.0;0;0;1;0;0;0.0;-1;0.0;0.0;11.475;1.667935427E9;78;0;2;0;0;0;2;0
1.667935426081E9;16128;667939.484839022;-711;-91;630;16131;667939.4823390221;-5748;7087;-428;38.295174;0;0;0;0;98228;98228;0;0;0;0;0;-2.5565062;-2.965037;0.0;0;0;1;0;0;0.0;-1;0.0;0.0;11.475;1.667935427E9;78;0;2;0;0;0;2;0
1.667935426091E9;16129;667939.494368814;-757;-114;743;16132;667939.491868814;-2222;10088;1338;38.295174;0;0;0;0;98228;98228;0;0;0;0;0;-2.4802268;-2.9197977;0.0;0;0;1;0;0;0.0;-1;0.0;0.0;11.475;1.667935427E9;78;0;2;0;0;0;2;0
1.667935426101E9;16130;667939.5038852721;-839;-116;836;16133;667939.501385272;2239;11427;2134;38.295174;0;0;0;0;98228;98228;0;0;0;0;0;-2.3820698;-2.901969;0.0;0;0;1;0;0;0.0;-1;0.0;0.0;11.475;1.667935427E9;78;0;2;0;0;0;2;0
1.667935426108E9;16131;667939.5134283451;-896;-140;791;16134;667939.510928345;3254;8163;1391;38.295174;0;0;0;0;98228;98228;0;0;0;0;0;-2.3158264;-2.8973134;0.0;0;0;1;0;0;0.0;-1;0.0;0.0;11.475;1.667935427E9;78;0;2;0;0;0;2;0
1.6679354261200001E9;16132;667939.522958084;-912;-149;667;16135;667939.5204580841;-1749;2581;192;38.295174;0;0;0;0;98230;98230;0;0;0;0;0;-2.3149474;-2.8755994;0.0;0;0;1;0;0;0.0;-1;0.0;0.0;11.475;1.667935427E9;78;0;2;0;0;0;2;0
1.667935426129E9;16133;667939.532487876;-819;-137;621;16136;667939.5299878761;-7533;-2309;-664;38.295174;0;0;0;0;98230;98230;0;0;0;0;0;-2.3725376;-2.8322136;0.0;0;0;1;0;0;0.0;-1;0.0;0.0;11.475;1.667935427E9;78;0;2;0;0;0;2;0
1.667935426137E9;16134;667939.542017668;-736;-127;609;16137;667939.5395176681;-7953;-3631;-1924;38.295174;0;0;0;0;98230;98230;0;0;0;0;0;-2.4466662;-2.7828357;0.0;0;0;1;0;0;0.0;-1;0.0;0.0;11.475;1.667935427E9;78;0;2;0;0;0;2;0
1.6679354261460001E9;16135;667939.551547407;-686;-110;586;16138;667939.549047407;-4059;-2432;-2248;38.295174;0;0;0;0;98230;98230;0;0;0;0;0;-2.503032;-2.7501159;0.0;0;0;1;0;0;0.0;-1;0.0;0.0;11.475;1.667935427E9;78;0;2;0;0;0;2;0
1.667935426214E9;16136;667939.5610771991;-647;-129;564;16139;667939.558577199;-516;-1312;-2152;38.295174;0;0;0;0;98225;98225;0;0;0;0;0;-2.5418901;-2.735039;0.0;0;0;1;0;0;0.0;-1;0.0;0.0;11.475;1.667935427E9;78;0;2;0;0;0;2;0
1.667935426214E9;16137;667939.5706069911;-648;-134;600;16140;667939.568106991;1741;-393;-1163;38.295174;0;0;0;0;98225;98225;0;0;0;0;0;-2.5647051;-2.7366874;0.0;0;0;1;0;0;0.0;-1;0.0;0.0;11.475;1.667935427E9;78;0;2;0;0;0;2;0
1.667935426214E9;16138;667939.58013673;-699;-155;661;16141;667939.57763673;4007;-43;-26;38.295174;0;0;0;0;98225;98225;0;0;0;0;0;-2.5763924;-2.7580607;0.0;0;0;1;0;0;0.0;-1;0.0;0.0;11.475;1.667935427E9;78;0;2;0;0;0;2;0
1.6679354262150002E9;16139;667939.589666522;-750;-131;671;16142;667939.587166522;5066;1216;962;38.295174;0;0;0;0;98225;98225;0;0;0;0;0;-2.57155;-2.7872744;0.0;0;0;1;0;0;0.0;-1;0.0;0.0;11.475;1.667935427E9;78;0;2;0;0;0;2;0
1.6679354262150002E9;16140;667939.599196314;-793;-117;654;16143;667939.596696314;2432;3289;1277;38.295174;0;0;0;0;98228;98228;0;0;0;0;0;-2.5520747;-2.7945228;0.0;0;0;1;0;0;0.0;-1;0.0;0.0;11.475;1.667935427E9;78;0;2;0;0;0;2;0
1.6679354262150002E9;16141;667939.608726053;-792;-123;644;16144;667939.6062260531;-1916;5914;804;38.295174;0;0;0;0;98228;98228;0;0;0;0;0;-2.51896;-2.762363;0.0;0;0;1;0;0;0.0;-1;0.0;0.0;11.475;1.667935427E9;78;0;2;0;0;0;2;0
1.6679354262150002E9;16142;667939.618255845;-790;-98;660;16145;667939.6157558451;-4051;8137;-69;38.295174;0;0;0;0;98228;98228;0;0;0;0;0;-2.473236;-2.7032092;0.0;0;0;1;0;0;0.0;-1;0.0;0.0;11.475;1.667935427E9;78;0;2;0;0;0;2;0
1.667935426223E9;16143;667939.6277855841;-755;-108;644;16146;667939.625285584;-4191;8548;-1049;38.295174;0;0;0;0;98228;98228;0;0;0;0;0;-2.4281979;-2.6353226;0.0;0;0;1;0;0;0.0;-1;0.0;0.0;11.475;1.667935427E9;78;0;2;0;0;0;2;0
1.667935426232E9;16144;667939.6373153761;-748;-81;644;16147;667939.634815376;-4182;5836;-1811;38.295174;0;0;0;0;98228;98228;0;0;0;0;0;-2.4112518;-2.5729625;0.0;0;0;1;0;0;0.0;-1;0.0;0.0;11.475;1.667935427E9;78;0;2;0;0;0;2;0
1.667935426242E9;16145;667939.6468451681;-738;-115;661;16148;667939.644345168;-3438;559;-1627;38.295174;0;0;0;0;98228;98228;0;0;0;0;0;-2.44084;-2.536619;0.0;0;0;1;0;0;0.0;-1;0.0;0.0;11.475;1.667935427E9;78;0;2;0;0;0;2;0
1.667935426252E9;16146;667939.656374907;-734;-127;679;16149;667939.6538749071;-787;-3954;-183;38.295174;0;0;0;0;98228;98228;0;0;0;0;0;-2.5017266;-2.5431228;0.0;0;0;1;0;0;0.0;-1;0.0;0.0;11.475;1.667935427E9;78;0;2;0;0;0;2;0
1.667935426262E9;16147;667939.665904699;-786;-131;710;16150;667939.6634046991;2974;-5328;1329;38.295174;0;0;0;0;98228;98228;0;0;0;0;0;-2.562772;-2.5872023;0.0;0;0;1;0;0;0.0;-1;0.0;0.0;11.475;1.667935427E9;78;0;2;0;0;0;2;0
1.66793542627E9;16148;667939.675434491;-815;-120;712;16151;667939.6729344911;5512;-3097;2178;38.295174;0;0;0;0;98228;98228;0;0;0;0;0;-2.595652;-2.6430027;0.0;0;0;1;0;0;0.0;-1;0.0;0.0;11.475;1.667935427E9;78;0;2;0;0;0;2;0
1.66793542628E9;16149;667939.68496423;-850;-113;695;16152;667939.68246423;4716;-314;1382;38.295174;0;0;0;0;98231;98231;0;0;0;0;0;-2.607326;-2.6770802;0.0;0;0;1;0;0;0.0;-1;0.0;0.0;11.475;1.667935427E9;78;0;2;0;0;0;2;0
1.66793542629E9;16150;667939.694494022;-824;-135;662;16153;667939.691994022;1242;367;-262;38.295174;0;0;0;0;98231;98231;0;0;0;0;0;-2.6249146;-2.675757;0.0;0;0;1;0;0;0.0;-1;0.0;0.0;11.475;1.667935427E9;78;0;2;0;0;0;2;0
1.667935426301E9;16151;667939.7040237611;-793;-102;638;16154;667939.701523761;-1294;-1452;-2091;38.295174;0;0;0;0;98231;98231;0;0;0;0;0;-2.6699295;-2.6531508;0.0;0;0;1;0;0;0.0;-1;0.0;0.0;11.475;1.667935427E9;78;0;2;0;0;0;2;0
1.667935426308E9;16152;667939.7135535531;-762;-103;615;16155;667939.711053553;-1207;-4514;-2913;38.295174;0;0;0;0;98231;98231;0;0;0;0;0;-2.7450721;-2.6367574;0.0;0;0;1;0;0;0.0;-1;0.0;0.0;11.475;1.667935427E9;78;0;2;0;0;0;2;0
1.667935426318E9;16153;667939.723083345;-670;-101;581;16156;667939.720583345;17;-7778;-1408;38.295174;0;0;0;0;98224;98224;0;0;0;0;0;-2.8418431;-2.6501021;0.0;0;0;1;0;0;0.0;-1;0.0;0.0;11.475;1.667935427E9;78;0;2;0;0;0;2;0
1.667935426329E9;16154;667939.732613084;-635;-106;544;16157;667939.7301130841;1662;-10972;-1452;38.295174;0;0;0;0;98224;98224;0;0;0;0;0;-2.9637663;-2.6843774;0.0;0;0;1;0;0;0.0;-1;0.0;0.0;11.475;1.667935427E9;78;0;2;0;0;0;2;0
1.667935426339E9;16155;667939.742142876;-638;-100;522;16158;667939.7396428761;2721;-10272;-1723;38.295174;0;0;0;0;98224;98224;0;0;0;0;0;-3.076911;-2.7196841;0.0;0;0;1;0;0;0.0;-1;0.0;0.0;11.475;1.667935427E9;78;0;2;0;0;0;2;0
1.667935426348E9;16156;667939.751672668;-700;-89;562;16159;667939.7491726681;2694;-5328;-1128;38.295174;0;0;0;0;98224;98224;0;0;0;0;0;-3.141818;-2.7395718;0.0;0;0;1;0;0;0.0;-1;0.0;0.0;11.475;1.667935427E9;78;0;2;0;0;0;2;0
1.667935426355E9;16157;667939.7612024071;-745;-134;631;16160;667939.758702407;2511;997;-113;38.295174;0;0;0;0;98230;98230;0;0;0;0;0;-3.1453993;-2.7409866;0.0;0;0;1;0;0;0.0;-1;0.0;0.0;11.475;1.667935427E9;78;0;2;0;0;0;2;0
1.667935426368E9;16158;667939.7707321991;-803;-112;692;16161;667939.768232199;2904;7052;839;38.295174;0;0;0;0;98230;98230;0;0;0;0;0;-3.0900278;-2.7281983;0.0;0;0;1;0;0;0.0;-1;0.0;0.0;11.475;1.667935427E9;78;0;2;0;0;0;2;0
1.667935426378E9;16159;667939.7802619911;-825;-120;708;16162;667939.777761991;1119;8985;1023;38.295174;0;0;0;0;98230;98230;0;0;0;0;0;-3.020571;-2.6984031;0.0;0;0;1;0;0;0.0;-1;0.0;0.0;11.475;1.667935427E9;78;0;2;0;0;0;2;0
1.667935426385E9;16160;667939.78979173;-854;-76;724;16163;667939.78729173;-2344;7306;96;38.295174;0;0;0;0;98230;98230;0;0;0;0;0;-2.9768898;-2.6476812;0.0;0;0;1;0;0;0.0;-1;0.0;0.0;11.475;1.667935427E9;78;0;2;0;0;0;2;0
1.667935426394E9;16161;667939.799321522;-860;-88;717;16164;667939.7968215221;-4663;3263;-953;38.295174;0;0;0;0;98231;98231;0;0;0;0;0;-2.9784355;-2.5912411;0.0;0;0;1;0;0;0.0;-1;0.0;0.0;11.475;1.667935427E9;78;0;2;0;0;0;2;0
1.667935426407E9;16162;667939.808851314;-786;-102;648;16165;667939.8063513141;-5057;-2231;-787;38.295174;0;0;0;0;98231;98231;0;0;0;0;0;-3.0301614;-2.554556;0.0;0;0;1;0;0;0.0;-1;0.0;0.0;11.475;1.667935427E9;78;0;2;0;0;0;2;0
1.667935426418E9;16163;667939.818381053;-778;-127;636;16166;667939.815881053;-4182;-6816;157;38.295174;0;0;0;0;98231;98231;0;0;0;0;0;-3.118219;-2.5469005;0.0;0;0;1;0;0;0.0;-1;0.0;0.0;11.475;1.667935427E9;78;0;2;0;0;0;2;0
1.667935426424E9;16164;667939.827910845;-776;-170;701;16167;667939.825410845;-341;-8338;2371;38.295174;0;0;0;0;98231;98231;0;0;0;0;0;-3.204628;-2.5829742;0.0;0;0;1;0;0;0.0;-1;0.0;0.0;11.475;1.667935427E9;78;0;2;0;0;0;2;0
1.667935426433E9;16165;667939.837440636;-807;-132;746;16168;667939.8349406361;6317;-7542;3263;38.295174;0;0;0;0;98231;98231;0;0;0;0;0;-3.2676947;-2.6614814;0.0;0;0;1;0;0;0.0;-1;0.0;0.0;11.475;1.667935427E9;78;0;2;0;0;0;2;0
1.6679354264420002E9;16166;667939.8469703761;-810;-164;641;16169;667939.844470376;7244;-7122;533;38.295174;0;0;0;0;98231;98231;0;0;0;0;0;-3.333738;-2.7239385;0.0;0;0;1;0;0;0.0;-1;0.0;0.0;11.475;1.667935427E9;78;0;2;0;0;0;2;0
1.667935426453E9;16167;667939.8565001681;-730;-111;533;16170;667939.854000168;1076;-7979;-2239;38.295174;0;0;0;0;98231;98231;0;0;0;0;0;-3.4274707;-2.7321167;0.0;0;0;1;0;0;0.0;-1;0.0;0.0;11.475;1.667935427E9;78;0;2;0;0;0;2;0
1.667935426464E9;16168;667939.866029907;-692;-86;502;16171;667939.8635299071;-4016;-9178;-4593;38.295174;0;0;0;0;98231;98231;0;0;0;0;0;-3.5482771;-2.6972747;0.0;0;0;1;0;0;0.0;-1;0.0;0.0;11.475;1.667935427E9;78;0;2;0;0;0;2;0
1.6679354264720001E9;16169;667939.875559699;-647;-59;515;16172;667939.8730596991;-3044;-6046;-3482;38.295174;0;0;0;0;98231;98231;0;0;0;0;0;-3.6335912;-2.6641896;0.0;0;0;1;0;0;0.0;-1;0.0;0.0;11.475;1.667935427E9;78;0;2;0;0;0;2;0
1.667935426482E9;16170;667939.885089491;-583;-61;547;16173;667939.8825894911;1181;-1233;-1443;38.295174;0;0;0;0;98226;98226;0;0;0;0;0;-3.659472;-2.6527393;0.0;0;0;1;0;0;0.0;-1;0.0;0.0;11.475;1.667935427E9;78;0;2;0;0;0;2;0
1.667935426491E9;16171;667939.8946192301;-596;-106;548;16174;667939.89211923;3587;236;-1916;38.295174;0;0;0;0;98226;98226;0;0;0;0;0;-3.6689043;-2.6470187;0.0;0;0;1;0;0;0.0;-1;0.0;0.0;11.475;1.667935427E9;78;0;2;0;0;0;2;0
1.667935426501E9;16172;667939.9041490221;-666;-90;581;16175;667939.901649022;3517;-253;-1216;38.295174;0;0;0;0;98226;98226;0;0;0;0;0;-3.680518;-2.6471717;0.0;0;0;1;0;0;0.0;-1;0.0;0.0;11.475;1.667935427E9;78;0;2;0;0;0;2;0
1.667935426509E9;16173;667939.9136788141;-743;-103;631;16176;667939.911178814;2799;306;-874;38.295174;0;0;0;0;98226;98226;0;0;0;0;0;-3.6871474;-2.642851;0.0;0;0;1;0;0;0.0;-1;0.0;0.0;11.475;1.667935427E9;78;0;2;0;0;0;2;0
1.667935426519E9;16174;667939.923208553;-854;-85;702;16177;667939.920708553;2283;4191;-761;38.295174;0;0;0;0;98233;98233;0;0;0;0;0;-3.6589682;-2.6213942;0.0;0;0;1;0;0;0.0;-1;0.0;0.0;11.475;1.667935427E9;78;0;2;0;0;0;2;0
1.66793542653E9;16175;667939.932725064;-931;-102;724;16178;667939.930225064;1706;6282;-148;38.295174;0;0;0;0;98233;98233;0;0;0;0;0;-3.6111703;-2.5927362;0.0;0;0;1;0;0;0.0;-1;0.0;0.0;11.475;1.667935427E9;78;0;2;0;0;0;2;0
1.667935426539E9;16176;667939.9422681361;-866;-127;673;16179;667939.939768136;-901;2581;1181;38.295174;0;0;0;0;98233;98233;0;0;0;0;0;-3.5979881;-2.5711367;0.0;0;0;1;0;0;0.0;-1;0.0;0.0;11.475;1.667935427E9;78;0;2;0;0;0;2;0
1.667935426547E9;16177;667939.951797876;-828;-108;654;16180;667939.9492978761;-3981;-3412;349;38.295174;0;0;0;0;98233;98233;0;0;0;0;0;-3.6362133;-2.5611856;0.0;0;0;1;0;0;0.0;-1;0.0;0.0;11.475;1.667935427E9;78;0;2;0;0;0;2;0
1.667935426555E9;16178;667939.961327668;-785;-110;669;16181;667939.958827668;-4672;-6824;17;38.295174;0;0;0;0;98228;98228;0;0;0;0;0;-3.7082438;-2.5575352;0.0;0;0;2;0;0;0.0;-1;0.0;0.0;11.475;1.667935427E9;78;0;2;0;0;0;2;0
1.667935426566E9;16179;667939.9708574071;-751;-104;679;16182;667939.968357407;-2467;-8408;533;38.295174;0;0;0;0;98228;98228;0;0;0;0;0;-3.7890177;-2.5769556;0.0;0;0;2;0;0;0.0;-1;0.0;0.0;11.475;1.667935427E9;78;0;2;0;0;0;2;0
1.667935426576E9;16180;667939.9803871991;-715;-154;624;16183;667939.977887199;-253;-10630;69;38.295174;0;0;0;0;98228;98228;0;0;0;0;0;-3.8877318;-2.615188;0.0;0;0;2;0;0;0.0;-1;0.0;0.0;11.475;1.667935427E9;78;0;2;0;0;0;2;0
1.6679354265870001E9;16181;667939.9899169911;-701;-142;584;16184;667939.987416991;883;-11112;-122;38.295174;0;0;0;0;98228;98228;0;0;0;0;0;-3.9893947;-2.6608992;0.0;0;0;2;0;0;0.0;-1;0.0;0.0;11.475;1.667935427E9;78;0;2;0;0;0;2;0
1.667935426594E9;16182;667939.99944673;-711;-136;571;16185;667939.9969467301;1233;-10552;-542;38.295174;0;0;0;0;98227;98227;0;0;0;0;0;-4.086617;-2.7037265;0.0;0;0;2;0;0;0.0;-1;0.0;0.0;11.475;1.667935427E9;78;0;2;0;0;0;2;0
1.667935426605E9;16183;667940.008976522;-721;-120;611;16186;667940.0064765221;1076;-7358;349;38.295174;0;0;0;0;98227;98227;0;0;0;0;0;-4.1516047;-2.7395797;0.0;0;0;2;0;0;0.0;-1;0.0;0.0;11.475;1.667935427E9;78;0;2;0;0;0;2;0
1.667935426615E9;16184;667940.018506314;-755;-107;675;16187;667940.0160063141;2038;-3246;1032;38.295174;0;0;0;0;98227;98227;0;0;0;0;0;-4.174553;-2.7705503;0.0;0;0;2;0;0;0.0;-1;0.0;0.0;11.475;1.667935427E9;78;0;2;0;0;0;2;0
1.6679354266230001E9;16185;667940.0280360531;-754;-122;683;16188;667940.025536053;2799;-43;874;38.295174;0;0;0;0;98227;98227;0;0;0;0;0;-4.167096;-2.793074;0.0;0;0;2;0;0;0.0;-1;0.0;0.0;11.475;1.667935427E9;78;0;2;0;0;0;2;0
1.667935426635E9;16186;667940.0375658451;-772;-107;671;16189;667940.035065845;1163;1898;-271;38.295174;0;0;0;0;98227;98227;0;0;0;0;0;-4.148666;-2.7902164;0.0;0;0;2;0;0;0.0;-1;0.0;0.0;11.475;1.667935427E9;78;0;2;0;0;0;2;0
1.667935426642E9;16187;667940.047095636;-752;-124;633;16190;667940.0445956361;-1959;1671;-1977;38.295174;0;0;0;0;98225;98225;0;0;0;0;0;-4.1439395;-2.7570581;0.0;0;0;2;0;0;0.0;-1;0.0;0.0;11.475;1.667935427E9;78;0;2;0;0;0;2;0
1.66793542671E9;16188;667940.056625376;-713;-98;595;16191;667940.054125376;-4436;1181;-2554;38.295174;0;0;0;0;98225;98225;0;0;0;0;0;-4.150294;-2.7063496;0.0;0;0;2;0;0;0.0;-1;0.0;0.0;11.475;1.667935427E9;78;0;2;0;0;0;2;0
1.66793542671E9;16189;667940.066155168;-685;-141;586;16192;667940.063655168;-5214;831;-2694;38.295174;0;0;0;0;98225;98225;0;0;0;0;0;-4.1617785;-2.6511633;0.0;0;0;2;0;0;0.0;-1;0.0;0.0;11.475;1.667935427E9;78;0;2;0;0;0;2;0
1.66793542671E9;16190;667940.075684907;-679;-130;633;16193;667940.0731849071;-2808;1531;-2047;38.295174;0;0;0;0;98225;98225;0;0;0;0;0;-4.160169;-2.6127782;0.0;0;0;2;0;0;0.0;-1;0.0;0.0;11.475;1.667935427E9;78;0;2;0;0;0;2;0
1.66793542671E9;16191;667940.085214699;-717;-127;678;16194;667940.0827146991;1942;1268;-1032;38.295174;0;0;0;0;98229;98229;0;0;0;0;0;-4.148783;-2.6119523;0.0;0;0;2;0;0;0.0;-1;0.0;0.0;11.475;1.667935427E9;78;0;2;0;0;0;2;0
1.66793542671E9;16192;667940.094744491;-733;-116;687;16195;667940.0922444911;4506;-454;-297;38.295174;0;0;0;0;98229;98229;0;0;0;0;0;-4.146075;-2.6385891;0.0;0;0;2;0;0;0.0;-1;0.0;0.0;11.475;1.667935427E9;78;0;2;0;0;0;2;0
1.66793542671E9;16193;667940.1042742301;-780;-105;682;16196;667940.10177423;4234;-2196;-498;38.295174;0;0;0;0;98229;98229;0;0;0;0;0;-4.160605;-2.6686783;0.0;0;0;2;0;0;0.0;-1;0.0;0.0;11.475;1.667935427E9;78;0;2;0;0;0;2;0
1.66793542671E9;16194;667940.1138040221;-767;-126;638;16197;667940.111304022;1758;-3246;-866;38.295174;0;0;0;0;98229;98229;0;0;0;0;0;-4.1906424;-2.68473;0.0;0;0;2;0;0;0.0;-1;0.0;0.0;11.475;1.667935427E9;78;0;2;0;0;0;2;0
1.667935426718E9;16195;667940.1233338141;-754;-101;631;16198;667940.120833814;-516;-2493;-813;39.654915;0;0;0;0;98225;98225;0;0;0;0;0;-4.2177687;-2.6832545;0.0;0;0;2;0;0;0.0;-1;0.0;0.0;10.566;1.667935428E9;78;0;2;0;0;0;2;0
1.66793542673E9;16196;667940.132863553;-770;-136;683;16199;667940.1303635531;-813;-131;-201;39.654915;0;0;0;0;98225;98225;0;0;0;0;0;-4.221604;-2.6751988;0.0;0;0;2;0;0;0.0;-1;0.0;0.0;10.566;1.667935428E9;78;0;2;0;0;0;2;0
1.667935426738E9;16197;667940.142393345;-795;-132;739;16200;667940.1398933451;1224;2309;708;39.654915;0;0;0;0;98225;98225;0;0;0;0;0;-4.1961274;-2.6768546;0.0;0;0;2;0;0;0.0;-1;0.0;0.0;10.566;1.667935428E9;78;0;2;0;0;0;2;0
1.667935426747E9;16198;667940.1519231361;-817;-130;742;16201;667940.149423136;2091;927;1286;39.654915;0;0;0;0;98225;98225;0;0;0;0;0;-4.1798754;-2.6930535;0.0;0;0;2;0;0;0.0;-1;0.0;0.0;10.566;1.667935428E9;78;0;2;0;0;0;2;0
1.667935426756E9;16199;667940.161452876;-817;-147;715;16202;667940.158952876;262;-1723;1146;39.654915;0;0;0;0;98225;98225;0;0;0;0;0;-4.1919446;-2.706828;0.0;0;0;2;0;0;0.0;-1;0.0;0.0;10.566;1.667935428E9;78;0;2;0;0;0;2;0
1.6679354267680001E9;16200;667940.1709826681;-815;-139;719;16203;667940.168482668;-1224;-2703;857;39.654915;0;0;0;0;98225;98225;0;0;0;0;0;-4.2168183;-2.7130146;0.0;0;0;2;0;0;0.0;-1;0.0;0.0;10.566;1.667935428E9;78;0;2;0;0;0;2;0
1.667935426776E9;16201;667940.1805124071;-777;-152;686;16204;667940.178012407;-1076;-3053;-113;39.654915;0;0;0;0;98225;98225;0;0;0;0;0;-4.2479634;-2.7147887;0.0;0;0;2;0;0;0.0;-1;0.0;0.0;10.566;1.667935428E9;78;0;2;0;0;0;2;0
1.667935426786E9;16202;667940.190042199;-711;-119;610;16205;667940.187542199;-1006;-3053;-1032;39.654915;0;0;0;0;98225;98225;0;0;0;0;0;-4.282118;-2.7107027;0.0;0;0;2;0;0;0.0;-1;0.0;0.0;10.566;1.667935428E9;78;0;2;0;0;0;2;0
1.6679354267940001E9;16203;667940.199571991;-641;-132;547;16206;667940.197071991;-2143;-3123;-1741;39.654915;0;0;0;0;98225;98225;0;0;0;0;0;-4.321458;-2.6949108;0.0;0;0;2;0;0;0.0;-1;0.0;0.0;10.566;1.667935428E9;78;0;2;0;0;0;2;0
1.667935426805E9;16204;667940.20910173;-606;-126;562;16207;667940.2066017301;-2502;-1662;-1889;39.654915;0;0;0;0;98225;98225;0;0;0;0;0;-4.348524;-2.670354;0.0;0;0;2;0;0;0.0;-1;0.0;0.0;10.566;1.667935428E9;78;0;2;0;0;0;2;0
1.667935426816E9;16205;667940.218631522;-638;-137;629;16208;667940.2161315221;-463;568;-1609;39.654915;0;0;0;0;98225;98225;0;0;0;0;0;-4.35037;-2.6520827;0.0;0;0;2;0;0;0.0;-1;0.0;0.0;10.566;1.667935428E9;78;0;2;0;0;0;2;0
1.667935426825E9;16206;667940.228161314;-654;-147;659;16209;667940.2256613141;2222;2388;-542;39.654915;0;0;0;0;98225;98225;0;0;0;0;0;-4.326978;-2.6510377;0.0;0;0;2;0;0;0.0;-1;0.0;0.0;10.566;1.667935428E9;78;0;2;0;0;0;2;0
1.667935426833E9;16207;667940.2376910531;-694;-131;659;16210;667940.235191053;2712;3709;297;39.654915;0;0;0;0;98225;98225;0;0;0;0;0;-4.2878156;-2.6537735;0.0;0;0;2;0;0;0.0;-1;0.0;0.0;10.566;1.667935428E9;78;0;2;0;0;0;2;0
1.667935426843E9;16208;667940.2472208451;-750;-123;682;16211;667940.244720845;1137;5302;131;39.654915;0;0;0;0;98229;98229;0;0;0;0;0;-4.237606;-2.6394992;0.0;0;0;2;0;0;0.0;-1;0.0;0.0;10.566;1.667935428E9;78;0;2;0;0;0;2;0
1.667935426854E9;16209;667940.256750636;-843;-106;742;16212;667940.2542506361;-157;8635;34;39.654915;0;0;0;0;98229;98229;0;0;0;0;0;-4.159579;-2.603914;0.0;0;0;2;0;0;0.0;-1;0.0;0.0;10.566;1.667935428E9;78;0;2;0;0;0;2;0
1.667935426864E9;16210;667940.266280376;-852;-162;757;16213;667940.2637803761;-1163;10858;1128;39.654915;0;0;0;0;98229;98229;0;0;0;0;0;-4.059401;-2.561164;0.0;0;0;2;0;0;0.0;-1;0.0;0.0;10.566;1.667935428E9;78;0;2;0;0;0;2;0
1.667935426874E9;16211;667940.275810168;-829;-157;744;16214;667940.2733101681;-2143;8697;1697;39.654915;0;0;0;0;98229;98229;0;0;0;0;0;-3.9791927;-2.5243766;0.0;0;0;2;0;0;0.0;-1;0.0;0.0;10.566;1.667935428E9;78;0;2;0;0;0;2;0
1.667935426881E9;16212;667940.285339907;-804;-144;713;16215;667940.282839907;-2537;3062;533;39.654915;0;0;0;0;98223;98223;0;0;0;0;0;-3.9557512;-2.4984539;0.0;0;0;2;0;0;0.0;-1;0.0;0.0;10.566;1.667935428E9;78;0;2;0;0;0;2;0
1.6679354268930001E9;16213;667940.294869699;-735;-122;666;16216;667940.292369699;-2869;-411;-218;39.654915;0;0;0;0;98223;98223;0;0;0;0;0;-3.967563;-2.4784284;0.0;0;0;2;0;0;0.0;-1;0.0;0.0;10.566;1.667935428E9;78;0;2;0;0;0;2;0
1.667935426901E9;16214;667940.304399491;-677;-128;636;16217;667940.301899491;-3071;-1461;-1058;39.654915;0;0;0;0;98223;98223;0;0;0;0;0;-3.9923637;-2.4553387;0.0;0;0;2;0;0;0.0;-1;0.0;0.0;10.566;1.667935428E9;78;0;2;0;0;0;2;0
1.667935426909E9;16215;667940.3139292301;-625;-152;606;16218;667940.31142923;-1583;-1732;-1461;39.654915;0;0;0;0;98223;98223;0;0;0;0;0;-4.0183816;-2.4397545;0.0;0;0;2;0;0;0.0;-1;0.0;0.0;10.566;1.667935428E9;78;0;2;0;0;0;2;0
1.6679354269190001E9;16216;667940.3234590221;-622;-156;579;16219;667940.320959022;621;-2904;-1784;39.654915;0;0;0;0;98224;98224;0;0;0;0;0;-4.052364;-2.4400525;0.0;0;0;2;0;0;0.0;-1;0.0;0.0;10.566;1.667935428E9;78;0;2;0;0;0;2;0
1.667935426933E9;16217;667940.332988814;-663;-155;578;16220;667940.330488814;1758;-3316;-1566;39.654915;0;0;0;0;98224;98224;0;0;0;0;0;-4.08739;-2.4504592;0.0;0;0;2;0;0;0.0;-1;0.0;0.0;10.566;1.667935428E9;78;0;2;0;0;0;2;0
1.6679354269390001E9;16218;667940.342518553;-679;-154;612;16221;667940.3400185531;2528;-1434;393;39.654915;0;0;0;0;98224;98224;0;0;0;0;0;-4.0970526;-2.4719634;0.0;0;0;2;0;0;0.0;-1;0.0;0.0;10.566;1.667935428E9;78;0;2;0;0;0;2;0
1.6679354269490001E9;16219;667940.352048345;-699;-158;630;16222;667940.3495483451;3928;1137;1163;39.654915;0;0;0;0;98224;98224;0;0;0;0;0;-4.0779405;-2.497735;0.0;0;0;2;0;0;0.0;-1;0.0;0.0;10.566;1.667935428E9;78;0;2;0;0;0;2;0
1.667935426956E9;16220;667940.361578136;-754;-134;608;16223;667940.359078136;4269;4409;166;39.654915;0;0;0;0;98226;98226;0;0;0;0;0;-4.031557;-2.506416;0.0;0;0;2;0;0;0.0;-1;0.0;0.0;10.566;1.667935428E9;78;0;2;0;0;0;2;0
1.667935426971E9;16221;667940.3711078761;-784;-113;617;16224;667940.368607876;629;7594;113;39.654915;0;0;0;0;98226;98226;0;0;0;0;0;-3.9627883;-2.4800494;0.0;0;0;2;0;0;0.0;-1;0.0;0.0;10.566;1.667935428E9;78;0;2;0;0;0;2;0
1.667935426976E9;16222;667940.3806376681;-799;-92;736;16225;667940.378137668;-3351;8828;1758;39.654915;0;0;0;0;98226;98226;0;0;0;0;0;-3.8844573;-2.4355896;0.0;0;0;2;0;0;0.0;-1;0.0;0.0;10.566;1.667935428E9;78;0;2;0;0;0;2;0
1.667935426986E9;16223;667940.390154178;-880;-134;867;16226;667940.3876541781;-2003;9668;2187;39.654915;0;0;0;0;98226;98226;0;0;0;0;0;-3.794603;-2.399325;0.0;0;0;2;0;0;0.0;-1;0.0;0.0;10.566;1.667935428E9;78;0;2;0;0;0;2;0
1.667935426996E9;16224;667940.399697199;-935;-166;820;16227;667940.397197199;1338;8294;2362;39.654915;0;0;0;0;98227;98227;0;0;0;0;0;-3.7108853;-2.3901649;0.0;0;0;2;0;0;0.0;-1;0.0;0.0;10.566;1.667935428E9;78;0;2;0;0;0;2;0
1.667935427005E9;16225;667940.409226991;-874;-149;701;16228;667940.4067269911;-1758;3412;2432;39.654915;0;0;0;0;98227;98227;0;0;0;0;0;-3.6776452;-2.3807898;0.0;0;0;2;0;0;0.0;-1;0.0;0.0;10.566;1.667935428E9;78;0;2;0;0;0;2;0
1.667935427016E9;16226;667940.41875673;-773;-161;675;16229;667940.4162567301;-7621;-988;1496;39.654915;0;0;0;0;98227;98227;0;0;0;0;0;-3.698856;-2.345422;0.0;0;0;2;0;0;0.0;-1;0.0;0.0;10.566;1.667935428E9;78;0;2;0;0;0;2;0
1.667935427025E9;16227;667940.428286522;-697;-190;713;16230;667940.425786522;-7332;-1478;1014;39.654915;0;0;0;0;98227;98227;0;0;0;0;0;-3.7257066;-2.3103569;0.0;0;0;2;0;0;0.0;-1;0.0;0.0;10.566;1.667935428E9;78;0;2;0;0;0;2;0
1.667935427036E9;16228;667940.437816314;-669;-184;696;16231;667940.435316314;-2222;-1452;209;39.654915;0;0;0;0;98227;98227;0;0;0;0;0;-3.745853;-2.3012092;0.0;0;0;2;0;0;0.0;-1;0.0;0.0;10.566;1.667935428E9;78;0;2;0;0;0;2;0
1.667935427045E9;16229;667940.4473460531;-680;-175;628;16232;667940.444846053;551;-2484;-734;39.654915;0;0;0;0;98221;98221;0;0;0;0;0;-3.7737746;-2.3065808;0.0;0;0;2;0;0;0.0;-1;0.0;0.0;10.566;1.667935428E9;78;0;2;0;0;0;2;0
1.667935427053E9;16230;667940.4568758451;-674;-164;625;16233;667940.454375845;1189;-3184;43;39.654915;0;0;0;0;98221;98221;0;0;0;0;0;-3.804362;-2.3238637;0.0;0;0;2;0;0;0.0;-1;0.0;0.0;10.566;1.667935428E9;78;0;2;0;0;0;2;0
1.667935427063E9;16231;667940.466405636;-735;-188;679;16234;667940.463905636;4164;-1776;551;39.654915;0;0;0;0;98221;98221;0;0;0;0;0;-3.8149068;-2.3576927;0.0;0;0;2;0;0;0.0;-1;0.0;0.0;10.566;1.667935428E9;78;0;2;0;0;0;2;0
1.667935427072E9;16232;667940.475935376;-764;-164;690;16235;667940.4734353761;7332;2336;901;39.654915;0;0;0;0;98221;98221;0;0;0;0;0;-3.7807088;-2.3979645;0.0;0;0;2;0;0;0.0;-1;0.0;0.0;10.566;1.667935428E9;78;0;2;0;0;0;2;0
1.667935427081E9;16233;667940.485465168;-757;-131;674;16236;667940.4829651681;5617;3718;1373;39.654915;0;0;0;0;98216;98216;0;0;0;0;0;-3.7353504;-2.4255688;0.0;0;0;2;0;0;0.0;-1;0.0;0.0;10.566;1.667935428E9;78;0;2;0;0;0;2;0
1.667935427091E9;16234;667940.4949949591;-778;-124;685;16237;667940.492494959;944;1959;-131;39.654915;0;0;0;0;98216;98216;0;0;0;0;0;-3.7199185;-2.4205306;0.0;0;0;2;0;0;0.0;-1;0.0;0.0;10.566;1.667935428E9;78;0;2;0;0;0;2;0
1.667935427102E9;16235;667940.5045246991;-788;-118;671;16238;667940.502024699;-682;1679;-1679;39.654915;0;0;0;0;98216;98216;0;0;0;0;0;-3.715399;-2.395837;0.0;0;0;2;0;0;0.0;-1;0.0;0.0;10.566;1.667935428E9;78;0;2;0;0;0;2;0
1.667935427109E9;16236;667940.5140544911;-763;-135;587;16239;667940.511554491;-1321;2721;-2257;39.654915;0;0;0;0;98216;98216;0;0;0;0;0;-3.7044845;-2.3592992;0.0;0;0;2;0;0;0.0;-1;0.0;0.0;10.566;1.667935428E9;78;0;2;0;0;0;2;0
1.667935427118E9;16237;667940.523584282;-718;-157;555;16240;667940.5210842821;-3106;4033;-1994;39.654915;0;0;0;0;98222;98222;0;0;0;0;0;-3.6838777;-2.3086185;0.0;0;0;2;0;0;0.0;-1;0.0;0.0;10.566;1.667935428E9;78;0;2;0;0;0;2;0
1.667935427129E9;16238;667940.533114022;-719;-155;640;16241;667940.530614022;-1697;5914;-1154;39.654915;0;0;0;0;98222;98222;0;0;0;0;0;-3.6405869;-2.2653491;0.0;0;0;2;0;0;0.0;-1;0.0;0.0;10.566;1.667935428E9;78;0;2;0;0;0;2;0
1.667935427138E9;16239;667940.542643814;-756;-143;688;16242;667940.540143814;3613;6632;-201;39.654915;0;0;0;0;98222;98222;0;0;0;0;0;-3.5779428;-2.2587085;0.0;0;0;2;0;0;0.0;-1;0.0;0.0;10.566;1.667935428E9;78;0;2;0;0;0;2;0
1.6679354271460001E9;16240;667940.5521736051;-778;-144;644;16243;667940.549673605;5468;5039;306;39.654915;0;0;0;0;98222;98222;0;0;0;0;0;-3.5249932;-2.2729414;0.0;0;0;2;0;0;0.0;-1;0.0;0.0;10.566;1.667935428E9;78;0;2;0;0;0;2;0
1.667935427211E9;16241;667940.561703345;-770;-120;607;16244;667940.5592033451;2161;227;594;39.654915;0;0;0;0;98218;98218;0;0;0;0;0;-3.5213752;-2.2869408;0.0;0;0;2;0;0;0.0;-1;0.0;0.0;10.566;1.667935428E9;78;0;2;0;0;0;2;0
1.667935427211E9;16242;667940.571233136;-777;-123;657;16245;667940.568733136;-446;-3184;1784;39.654915;0;0;0;0;98218;98218;0;0;0;0;0;-3.5497704;-2.3060007;0.0;0;0;2;0;0;0.0;-1;0.0;0.0;10.566;1.667935428E9;78;0;2;0;0;0;2;0
1.667935427211E9;16243;667940.5807628761;-805;-139;744;16246;667940.578262876;2099;-1784;3263;39.654915;0;0;0;0;98218;98218;0;0;0;0;0;-3.5555892;-2.3455873;0.0;0;0;2;0;0;0.0;-1;0.0;0.0;10.566;1.667935428E9;78;0;2;0;0;0;2;0
1.667935427211E9;16244;667940.5902926681;-836;-156;743;16247;667940.587792668;5984;454;3981;39.654915;0;0;0;0;98218;98218;0;0;0;0;0;-3.5313292;-2.405507;0.0;0;0;2;0;0;0.0;-1;0.0;0.0;10.566;1.667935428E9;78;0;2;0;0;0;2;0
1.667935427211E9;16245;667940.599822459;-823;-163;660;16248;667940.597322459;3867;-664;3552;39.654915;0;0;0;0;98216;98216;0;0;0;0;0;-3.522678;-2.4535847;0.0;0;0;2;0;0;0.0;-1;0.0;0.0;10.566;1.667935428E9;78;0;2;0;0;0;2;0
1.667935427211E9;16246;667940.609352199;-822;-158;651;16249;667940.6068521991;-1933;-2983;2047;39.654915;0;0;0;0;98216;98216;0;0;0;0;0;-3.551092;-2.4643033;0.0;0;0;2;0;0;0.0;-1;0.0;0.0;10.566;1.667935428E9;78;0;2;0;0;0;2;0
1.6679354272150002E9;16247;667940.618881991;-854;-161;700;16250;667940.6163819911;-3779;-2502;559;39.654915;0;0;0;0;98216;98216;0;0;0;0;0;-3.5834827;-2.4515448;0.0;0;0;2;0;0;0.0;-1;0.0;0.0;10.566;1.667935428E9;78;0;2;0;0;0;2;0
1.6679354272250001E9;16248;667940.6284117821;-877;-167;696;16251;667940.625911782;-953;8;498;39.654915;0;0;0;0;98216;98216;0;0;0;0;0;-3.5877514;-2.446239;0.0;0;0;2;0;0;0.0;-1;0.0;0.0;10.566;1.667935428E9;78;0;2;0;0;0;2;0
1.667935427233E9;16249;667940.637941522;-841;-181;633;16252;667940.635441522;743;638;1067;39.654915;0;0;0;0;98213;98213;0;0;0;0;0;-3.581133;-2.452869;0.0;0;0;2;0;0;0.0;-1;0.0;0.0;10.566;1.667935428E9;78;0;2;0;0;0;2;0
1.667935427244E9;16250;667940.6474713141;-807;-182;620;16253;667940.644971314;253;-1303;1426;39.654915;0;0;0;0;98213;98213;0;0;0;0;0;-3.5920007;-2.4662244;0.0;0;0;2;0;0;0.0;-1;0.0;0.0;10.566;1.667935428E9;78;0;2;0;0;0;2;0
1.667935427253E9;16251;667940.657001105;-802;-179;680;16254;667940.6545011051;472;-2283;1994;39.654915;0;0;0;0;98213;98213;0;0;0;0;0;-3.609464;-2.488465;0.0;0;0;2;0;0;0.0;-1;0.0;0.0;10.566;1.667935428E9;78;0;2;0;0;0;2;0
1.667935427262E9;16252;667940.666530845;-773;-170;726;16255;667940.664030845;2099;-1303;2913;39.654915;0;0;0;0;98213;98213;0;0;0;0;0;-3.6117187;-2.5232499;0.0;0;0;2;0;0;0.0;-1;0.0;0.0;10.566;1.667935428E9;78;0;2;0;0;0;2;0
1.6679354272710001E9;16253;667940.6760606361;-746;-139;702;16256;667940.673560636;2878;-673;2213;39.654915;0;0;0;0;98213;98213;0;0;0;0;0;-3.6090794;-2.5555062;0.0;0;0;2;0;0;0.0;-1;0.0;0.0;10.566;1.667935428E9;78;0;2;0;0;0;2;0
1.66793542728E9;16254;667940.6855904281;-716;-129;621;16257;667940.683090428;1741;-533;-253;39.654915;0;0;0;0;98214;98214;0;0;0;0;0;-3.6155822;-2.5631287;0.0;0;0;2;0;0;0.0;-1;0.0;0.0;10.566;1.667935428E9;78;0;2;0;0;0;2;0
1.6679354272910001E9;16255;667940.695120168;-677;-121;527;16258;667940.6926201681;-183;1338;-2659;39.654915;0;0;0;0;98214;98214;0;0;0;0;0;-3.6165373;-2.5351877;0.0;0;0;2;0;0;0.0;-1;0.0;0.0;10.566;1.667935428E9;78;0;2;0;0;0;2;0
1.667935427301E9;16256;667940.7046366781;-625;-112;475;16259;667940.702136678;-1758;4322;-3744;39.654915;0;0;0;0;98214;98214;0;0;0;0;0;-3.5965471;-2.4787688;0.0;0;0;2;0;0;0.0;-1;0.0;0.0;10.566;1.667935428E9;78;0;2;0;0;0;2;0
1.667935427309E9;16257;667940.7141796991;-611;-105;514;16260;667940.711679699;-1128;6614;-3604;39.654915;0;0;0;0;98214;98214;0;0;0;0;0;-3.5537868;-2.418546;0.0;0;0;2;0;0;0.0;-1;0.0;0.0;10.566;1.667935428E9;78;0;2;0;0;0;2;0
1.667935427319E9;16258;667940.7237094911;-698;-106;628;16261;667940.721209491;2756;8163;-2117;39.654915;0;0;0;0;98214;98214;0;0;0;0;0;-3.484602;-2.3866425;0.0;0;0;2;0;0;0.0;-1;0.0;0.0;10.566;1.667935428E9;78;0;2;0;0;0;2;0
1.66793542733E9;16259;667940.733239282;-769;-134;718;16262;667940.7307392821;7796;7551;874;39.654915;0;0;0;0;98214;98214;0;0;0;0;0;-3.4016867;-2.4086154;0.0;0;0;2;0;0;0.0;-1;0.0;0.0;10.566;1.667935428E9;78;0;2;0;0;0;2;0
1.667935427339E9;16260;667940.742769022;-777;-144;706;16263;667940.7402690221;9020;2756;3158;39.654915;0;0;0;0;98214;98214;0;0;0;0;0;-3.3528864;-2.4718988;0.0;0;0;2;0;0;0.0;-1;0.0;0.0;10.566;1.667935428E9;78;0;2;0;0;0;2;0
1.6679354273470001E9;16261;667940.752298814;-777;-120;650;16264;667940.7497988141;4243;-4217;2598;39.654915;0;0;0;0;98214;98214;0;0;0;0;0;-3.3788579;-2.5282946;0.0;0;0;2;0;0;0.0;-1;0.0;0.0;10.566;1.667935428E9;78;0;2;0;0;0;2;0
1.667935427356E9;16262;667940.7618286051;-774;-65;632;16265;667940.759328605;-1697;-7437;813;39.654915;0;0;0;0;98215;98215;0;0;0;0;0;-3.451361;-2.5480552;0.0;0;0;2;0;0;0.0;-1;0.0;0.0;10.566;1.667935428E9;78;0;2;0;0;0;2;0
1.667935427369E9;16263;667940.771358345;-748;-91;593;16266;667940.768858345;-3254;-6256;-752;39.654915;0;0;0;0;98215;98215;0;0;0;0;0;-3.5210247;-2.5429351;0.0;0;0;2;0;0;0.0;-1;0.0;0.0;10.566;1.667935428E9;78;0;2;0;0;0;2;0
1.66793542738E9;16264;667940.780888136;-681;-100;505;16267;667940.7783881361;-2563;-3753;-1671;39.654915;0;0;0;0;98215;98215;0;0;0;0;0;-3.5693183;-2.526263;0.0;0;0;2;0;0;0.0;-1;0.0;0.0;10.566;1.667935428E9;78;0;2;0;0;0;2;0
1.667935427386E9;16265;667940.790417928;-688;-115;503;16268;667940.7879179281;-1653;-1102;-1391;39.654915;0;0;0;0;98215;98215;0;0;0;0;0;-3.5904162;-2.507133;0.0;0;0;2;0;0;0.0;-1;0.0;0.0;10.566;1.667935428E9;78;0;2;0;0;0;2;0
1.667935427394E9;16266;667940.7999476681;-748;-149;671;16269;667940.797447668;1732;1338;1776;39.654915;0;0;0;0;98216;98216;0;0;0;0;0;-3.5719292;-2.5214975;0.0;0;0;2;0;0;0.0;-1;0.0;0.0;10.566;1.667935428E9;78;0;2;0;0;0;2;0
1.667935427407E9;16267;667940.809477459;-828;-161;858;16270;667940.806977459;9318;183;6046;39.654915;0;0;0;0;98216;98216;0;0;0;0;0;-3.5355384;-2.616362;0.0;0;0;2;0;0;0.0;-1;0.0;0.0;10.566;1.667935428E9;78;0;2;0;0;0;2;0
1.667935427417E9;16268;667940.81899397;-921;-154;828;16271;667940.81649397;14174;-4663;7166;39.654915;0;0;0;0;98216;98216;0;0;0;0;0;-3.5309243;-2.7670171;0.0;0;0;2;0;0;0.0;-1;0.0;0.0;10.566;1.667935428E9;78;0;2;0;0;0;2;0
1.667935427426E9;16269;667940.828536991;-953;-123;678;16272;667940.8260369911;8391;-10114;4558;39.654915;0;0;0;0;98216;98216;0;0;0;0;0;-3.5958965;-2.8845344;0.0;0;0;2;0;0;0.0;-1;0.0;0.0;10.566;1.667935428E9;78;0;2;0;0;0;2;0
1.667935427434E9;16270;667940.838066782;-871;-125;569;16273;667940.835566782;-2581;-13632;419;39.654915;0;0;0;0;98216;98216;0;0;0;0;0;-3.7276368;-2.9191332;0.0;0;0;2;0;0;0.0;-1;0.0;0.0;10.566;1.667935428E9;78;0;2;0;0;0;2;0
1.667935427446E9;16271;667940.847583293;-743;-152;513;16274;667940.845083293;-8758;-11917;-1881;39.654915;0;0;0;0;98212;98212;0;0;0;0;0;-3.8627086;-2.8931804;0.0;0;0;2;0;0;0.0;-1;0.0;0.0;10.566;1.667935428E9;78;0;2;0;0;0;2;0
1.667935427453E9;16272;667940.8571263141;-606;-154;469;16275;667940.854626314;-8006;-7804;-218;39.654915;0;0;0;0;98212;98212;0;0;0;0;0;-3.9525588;-2.8676515;0.0;0;0;2;0;0;0.0;-1;0.0;0.0;10.566;1.667935428E9;78;0;2;0;0;0;2;0
